Timestamp,AccelX,AccelY,AccelZ,GyroX,GyroY,GyroZ,QuatW,QuatX,QuatY,QuatZ
2020-07-29 13:05:26.455,0.0238037109375,-0.997802734375,-0.0070953369140625,-0.048235438764095306,0.06447219848632812,0.049003228545188904,0.7087158653119419,0.7053947845996179,0.011828034378957259,-1.734723475976807e-18
2020-07-29 13:05:26.465,0.0159454345703125,-1.0082855224609375,-0.0061492919921875,-0.05469360575079918,0.10092661529779434,0.05164987966418266,0.7089221707613867,0.7051844504297622,0.011993454415151438,0.0004727520304202773
2020-07-29 13:05:26.475,0.0106201171875,-1.0207672119140625,-0.0068817138671875,-0.06794336438179016,0.10020250082015991,0.04670971632003784,0.7091723360527438,0.7049289741651678,0.012197733301249802,0.0009613768968534386
2020-07-29 13:05:26.485,0.0069122314453125,-1.028900146484375,-0.0087432861328125,-0.08888167142868042,0.1361437290906906,0.04767777398228645,0.7094958187504208,0.7045973359821758,0.012487566345456738,0.0015372821865521002
2020-07-29 13:05:26.495,0.0029449462890625,-1.03289794921875,-0.0081787109375,-0.11894316226243973,0.13998320698738098,0.054657384753227234,0.7099190502470053,0.7041634414794352,0.012803038435050857,0.0021827600005633724
2020-07-29 13:05:26.505,-0.0003814697265625,-1.037567138671875,-0.008453369140625,-0.1462877094745636,0.19000749289989471,0.05746861919760704,0.7104385315842283,0.70362818268699,0.013246407402222242,0.0029830632071087427
2020-07-29 13:05:26.515,7.62939453125e-05,-1.0385894775390625,-0.0100250244140625,-0.17588208615779877,0.21224381029605865,0.06311745196580887,0.7110624149917466,0.7029829437686786,0.013777927091932119,0.003910744100318283
2020-07-29 13:05:26.525,-0.0017547607421875,-1.03515625,-0.014984130859375,-0.21173302829265594,0.2506764233112335,0.07005684822797775,0.7117977168501385,0.702219103837214,0.014402185143906478,0.004982477526139067
2020-07-29 13:05:26.536,-0.0021209716796875,-1.029815673828125,-0.0175018310546875,-0.23282791674137115,0.2705729007720947,0.07464547455310822,0.7126072815367646,0.7013733594091774,0.015107197677653044,0.006164362155464141
2020-07-29 13:05:26.545,0.0057373046875,-1.02166748046875,-0.0228271484375,-0.24626676738262177,0.29925915598869324,0.07396131008863449,0.7134548833146652,0.7004805411094729,0.015919621851197146,0.0074545526114094965
2020-07-29 13:05:26.556,0.014312744140625,-1.00634765625,-0.025543212890625,-0.2444283813238144,0.3311811089515686,0.07936166971921921,0.7113380582497519,0.7025944097995075,0.0166362492612199,0.009073849337483737
2020-07-29 13:05:26.565,0.020721435546875,-0.989715576171875,-0.0234832763671875,-0.23250487446784973,0.3407314717769623,0.08134838193655014,0.7114479013782601,0.7024445705122463,0.01710111391785036,0.011006109629386772
2020-07-29 13:05:26.576,0.0339202880859375,-0.9814605712890625,-0.0208740234375,-0.21907348930835724,0.35816293954849243,0.07681142538785934,0.7115941860777413,0.7022506978259685,0.017571320091340943,0.012993979280657396
2020-07-29 13:05:26.585,0.0468902587890625,-0.975799560546875,-0.013885498046875,-0.2072405368089676,0.3409240245819092,0.07325077801942825,0.7118070052778311,0.7019852612224642,0.01798763198182899,0.014965627018225236
2020-07-29 13:05:26.596,0.058929443359375,-0.9693145751953125,-0.0045928955078125,-0.2003602534532547,0.3511063754558563,0.07153277099132538,0.7124893924433177,0.7012347736820037,0.018961559620354295,0.016406993714959066
2020-07-29 13:05:26.605,0.0723876953125,-0.9633331298828125,0.0004425048828125,-0.19401314854621887,0.3376598060131073,0.0691782683134079,0.7131471991478314,0.7005053338216221,0.019905544123703954,0.017807397696032193
2020-07-29 13:05:26.616,0.0843658447265625,-0.9585418701171875,0.00653076171875,-0.184456929564476,0.3369833528995514,0.07322760671377182,0.7137679868342245,0.6998090163860536,0.020822690686299293,0.019208204795234426
2020-07-29 13:05:26.625,0.09014892578125,-0.9575042724609375,0.01220703125,-0.1708734780550003,0.3240973949432373,0.08334575593471527,0.714336646402384,0.6991633173510117,0.021665465512728,0.02059834148321802
2020-07-29 13:05:26.635,0.0984344482421875,-0.9548187255859375,0.014556884765625,-0.14937297999858856,0.29969456791877747,0.08857141435146332,0.7148343545131621,0.6985904374332967,0.02240870436284518,0.021932580906255432
2020-07-29 13:05:26.645,0.105255126953125,-0.9551544189453125,0.0206756591796875,-0.13344860076904297,0.2715708017349243,0.09565621614456177,0.7152728389116234,0.6980813173928175,0.023023144496590733,0.02317629721178394
2020-07-29 13:05:26.655,0.1082611083984375,-0.959869384765625,0.0243377685546875,-0.12386389076709747,0.22794342041015625,0.0975222960114479,0.7156844044099737,0.6976065964566391,0.023483835036591832,0.024278730470833496
2020-07-29 13:05:26.666,0.1082611083984375,-0.959869384765625,0.0243377685546875,-0.11774607747793198,0.18937233090400696,0.09459548443555832,0.7160790420806191,0.6971565766206458,0.023810448793225455,0.0252281006975833
2020-07-29 13:05:26.675,0.1066131591796875,-0.9853515625,0.025848388671875,-0.11109855771064758,0.1451079249382019,0.08957568556070328,0.7164606189700544,0.6967295018804117,0.023999050400534055,0.026003452403647383
2020-07-29 13:05:26.686,0.1034088134765625,-0.9951171875,0.0196075439453125,-0.11655937135219574,0.09358987212181091,0.07919042557477951,0.7168631919182171,0.6962929631115969,0.024033003384602895,0.026565733138671808
2020-07-29 13:05:26.695,0.095855712890625,-1.0025177001953125,0.0155792236328125,-0.11780998855829239,0.040943440049886703,0.06684161722660065,0.717276739032688,0.6958570100716913,0.023937070834706618,0.02690863201948556
2020-07-29 13:05:26.707,0.0830078125,-1.006591796875,0.0143280029296875,-0.12230540812015533,0.014158163219690323,0.04478531330823898,0.717709606500908,0.6954082805612419,0.023814518112136033,0.027075711538492496
2020-07-29 13:05:26.715,0.0626068115234375,-1.0041961669921875,0.000946044921875,-0.12365323305130005,-0.02321850322186947,0.017460215836763382,0.7181568968674779,0.6949539951477373,0.02365706121856009,0.027017156362633785
2020-07-29 13:05:26.725,0.0444488525390625,-0.9895477294921875,-0.0087890625,-0.12778060138225555,-0.06210731342434883,-0.023069633170962334,0.718627025955094,0.6944865852417971,0.023493666665380716,0.026673298312357263
2020-07-29 13:05:26.735,0.0444488525390625,-0.9895477294921875,-0.0087890625,-0.13488350808620453,-0.10684868693351746,-0.07700636982917786,0.7191342787743554,0.6939920691987487,0.023364882969743532,0.025981078664913223
2020-07-29 13:05:26.746,0.0371551513671875,-0.9481048583984375,-0.03948974609375,-0.1392018347978592,-0.15079882740974426,-0.15091387927532196,0.7165255097456649,0.6966795965141105,0.02952367040719887,0.0188948064146916
2020-07-29 13:05:26.755,0.028106689453125,-0.9346160888671875,-0.048187255859375,-0.13660258054733276,-0.1888793706893921,-0.2234855592250824,0.7147774730196094,0.6984082000616275,0.03374824574080906,0.013424510803050845
2020-07-29 13:05:26.766,0.028106689453125,-0.9346160888671875,-0.048187255859375,-0.14477236568927765,-0.20387430489063263,-0.28653404116630554,0.713844863225943,0.6992794234645521,0.03677769021998786,0.009002408571055448
2020-07-29 13:05:26.775,-0.0196380615234375,-0.8814697265625,-0.047149658203125,-0.16443021595478058,-0.1996912807226181,-0.3410894274711609,0.7134572350515149,0.6995945645933903,0.03894155083795783,0.005447572308874822
2020-07-29 13:05:26.785,-0.0439300537109375,-0.871490478515625,-0.049285888671875,-0.1802946776151657,-0.19069191813468933,-0.3976682722568512,0.7133036589608216,0.6996780587556073,0.04052442860711504,0.0025294554740932828
2020-07-29 13:05:26.795,-0.0531768798828125,-0.8917999267578125,-0.0458526611328125,-0.18598265945911407,-0.17394064366817474,-0.4432147145271301,0.714007567200575,0.6989100385798397,0.04144836657080689,0.00033470159353902323
2020-07-29 13:05:26.805,-0.0479736328125,-0.9530029296875,-0.0301361083984375,-0.18245050311088562,-0.14030544459819794,-0.4577779471874237,0.7146982313283284,0.6981360264448117,0.04253642337421618,-0.0018003656406737172
2020-07-29 13:05:26.815,-0.0479736328125,-0.9530029296875,-0.0301361083984375,-0.19785529375076294,-0.10197829455137253,-0.42077916860580444,0.7154173769307497,0.6973244623842165,0.043624448663069706,-0.003671851691556473
2020-07-29 13:05:26.826,0.0252532958984375,-1.1455535888671875,0.01177978515625,-0.20175255835056305,-0.09050566703081131,-0.3440455198287964,0.716138591759495,0.6965183100235631,0.04450270660210981,-0.005227958382237404
2020-07-29 13:05:26.835,0.06951904296875,-1.1947021484375,0.02325439453125,-0.16051031649112701,-0.08146822452545166,-0.2485826462507248,0.7167128305279009,0.6958793871029773,0.045092797132789665,-0.0064287471176110115
2020-07-29 13:05:26.845,0.0750274658203125,-1.172607421875,0.049407958984375,-0.08244454115629196,-0.05342194437980652,-0.1733478158712387,0.7170322046384943,0.6955144811969663,0.0455146618592744,-0.007274145893733536
2020-07-29 13:05:26.855,0.04827880859375,-1.1133270263671875,0.0839996337890625,-0.045641787350177765,-0.01571105234324932,-0.12030404061079025,0.7172178111810825,0.6952930643073875,0.0458835888230224,-0.007804987401661995
2020-07-29 13:05:26.865,0.005645751953125,-1.0636138916015625,0.1140289306640625,-0.059373579919338226,0.015482020564377308,-0.07582179456949234,0.7174393941353557,0.6950404139089167,0.046201467976328674,-0.008063067058256015
2020-07-29 13:05:26.876,-0.035186767578125,-1.0493011474609375,0.130889892578125,-0.09794121235609055,0.039436355233192444,-0.025622539222240448,0.7177814302206803,0.6946716252936536,0.046434906754741545,-0.008050110627893521
2020-07-29 13:05:26.885,-0.059356689453125,-1.0715789794921875,0.1475982666015625,-0.12852095067501068,0.06720300763845444,0.020187826827168465,0.7182319560590524,0.6941973495788417,0.046608021219829494,-0.007768264030020988
2020-07-29 13:05:26.896,-0.0599365234375,-1.1186676025390625,0.1596832275390625,-0.1744418442249298,0.09788502007722855,0.06386180222034454,0.7188400294502024,0.693564527523223,0.046743810157855906,-0.007217715475123422
2020-07-29 13:05:26.905,-0.0599365234375,-1.1186676025390625,0.1596832275390625,-0.24187308549880981,0.11453163623809814,0.10116177052259445,0.7192291143170182,0.6931615530628039,0.04679162989414166,-0.006857368503889786
2020-07-29 13:05:26.916,-0.0387420654296875,-1.1581878662109375,0.1462860107421875,-0.30701425671577454,0.10309202969074249,0.13919544219970703,0.7207255505052119,0.6916226069061423,0.046706874962174835,-0.005583729687246133
2020-07-29 13:05:26.926,-0.014373779296875,-1.1300201416015625,0.0763397216796875,-0.34586286544799805,0.07927271723747253,0.1748809963464737,0.7219189510040086,0.6904047710161773,0.04639511614155911,-0.004660364453166923
2020-07-29 13:05:26.936,-0.014373779296875,-1.1300201416015625,0.0763397216796875,-0.3704909682273865,0.05524115264415741,0.2015797197818756,0.7232055580425067,0.6890950641104553,0.045910592153273845,-0.003712911872959481
2020-07-29 13:05:26.945,-0.00640869140625,-1.0631561279296875,0.053253173828125,-0.39038825035095215,0.04998646676540375,0.21506063640117645,0.7245577656010642,0.6877145190624006,0.04535631886869401,-0.002725803898243115
2020-07-29 13:05:26.955,-0.00543212890625,-0.9816131591796875,0.041259765625,-0.4129902422428131,0.05609922111034393,0.22850428521633148,0.7259863435748433,0.6862479529709189,0.04477396005784456,-0.0016675853619286078
2020-07-29 13:05:26.965,-0.0110321044921875,-0.914459228515625,0.034088134765625,-0.44383764266967773,0.055862732231616974,0.23929087817668915,0.7275081885419078,0.6846764305764447,0.04415382747504205,-0.0005635248976737159
2020-07-29 13:05:26.976,-0.0172576904296875,-0.8820037841796875,0.03057861328125,-0.45447084307670593,0.04090562090277672,0.2512623369693756,0.7290619540422127,0.6830671945068331,0.04344414404651092,0.0005294621357254435
2020-07-29 13:05:26.986,-0.02545166015625,-0.8769683837890625,0.020416259765625,-0.4311141073703766,0.013798103667795658,0.2538360059261322,0.7298208924567392,0.6822810952967766,0.043044245922627775,0.0010507892004253507
2020-07-29 13:05:26.995,-0.0295257568359375,-0.8754119873046875,0.0074005126953125,-0.3777121305465698,-0.02274765633046627,0.24790674448013306,0.7318496938013154,0.6801860014599816,0.041679310721766845,0.002395050997134545
2020-07-29 13:05:27.006,-0.0274200439453125,-0.8662261962890625,0.0042572021484375,-0.3178352117538452,-0.07232532650232315,0.24100595712661743,0.7329571583665588,0.6790553432282168,0.04059851241237094,0.003046774292730189
2020-07-29 13:05:27.016,-0.0246429443359375,-0.8560333251953125,0.0085601806640625,-0.25268152356147766,-0.10873446613550186,0.22635270655155182,0.733856979639349,0.6781501321807607,0.039421177701702635,0.0035058548388655535
2020-07-29 13:05:27.026,-0.021728515625,-0.8494415283203125,0.02252197265625,-0.2119458168745041,-0.1452421396970749,0.22208818793296814,0.7346196393233708,0.6773961213470979,0.03812993481727873,0.003820036020111904
2020-07-29 13:05:27.035,-0.016357421875,-0.8643035888671875,0.0335540771484375,-0.18510913848876953,-0.16859780251979828,0.21909134089946747,0.7352873809936262,0.6767451931825319,0.03677033193191904,0.004035176818358736
2020-07-29 13:05:27.046,-0.0169830322265625,-0.90362548828125,0.048309326171875,-0.1601097732782364,-0.1743728667497635,0.20295816659927368,0.7358673053829712,0.6761850707305372,0.03543684199103505,0.004164927262368495
2020-07-29 13:05:27.056,-0.01904296875,-0.9338531494140625,0.0581207275390625,-0.12784504890441895,-0.16362088918685913,0.1786791980266571,0.7363481606592717,0.6757231704504311,0.034228385140712865,0.004236742061859109
2020-07-29 13:05:27.066,-0.0313873291015625,-0.9488525390625,0.0689544677734375,-0.11882838606834412,-0.13776452839374542,0.14549274742603302,0.7367877540619306,0.6752943118855189,0.03321425173425736,0.004273847915363824
2020-07-29 13:05:27.076,-0.0574951171875,-0.9494781494140625,0.0775299072265625,-0.11908803880214691,-0.10845430195331573,0.11447704583406448,0.7372208504669123,0.6748596299650728,0.032423774397691174,0.0042963662489405256
2020-07-29 13:05:27.086,-0.0804290771484375,-0.9418182373046875,0.0801849365234375,-0.12433207035064697,-0.06349775195121765,0.08039630204439163,0.7376647542446276,0.6743983209615008,0.031915365088212376,0.00434575859823061
2020-07-29 13:05:27.096,-0.0998077392578125,-0.9423980712890625,0.074737548828125,-0.12496164441108704,-0.0028426581993699074,0.04781785607337952,0.7380993039819385,0.6739302313052747,0.03174034170497811,0.0044820700601719
2020-07-29 13:05:27.106,-0.1170806884765625,-0.9498748779296875,0.0676727294921875,-0.12087715417146683,0.07848202437162399,0.02479775808751583,0.7385076759605959,0.673470878016741,0.03194006222574365,0.004809095903350977
2020-07-29 13:05:27.116,-0.126922607421875,-0.9627838134765625,0.0699462890625,-0.11048230528831482,0.16713972389698029,0.02040434069931507,0.7388707802381052,0.6730417516549201,0.03248873632574261,0.005408916509680817
2020-07-29 13:05:27.126,-0.1368408203125,-0.981201171875,0.06488037109375,-0.10443692654371262,0.2626481354236603,0.01158821303397417,0.7392007040203529,0.6726261439455458,0.03341775922816025,0.006297685815563154
2020-07-29 13:05:27.136,-0.137908935546875,-0.9929656982421875,0.06622314453125,-0.12785835564136505,0.36575692892074585,-0.0037230991292744875,0.739593447678317,0.6721132678345031,0.034775482028861326,0.007478571737520305
2020-07-29 13:05:27.146,-0.132965087890625,-1.006072998046875,0.092681884765625,-0.19133932888507843,0.4626278281211853,-0.023444339632987976,0.7401694763647955,0.6713672405969789,0.03654483712909577,0.008915126211827551
2020-07-29 13:05:27.156,-0.131988525390625,-1.0263519287109375,0.1119842529296875,-0.2579231560230255,0.5282497406005859,-0.04409182816743851,0.7409484396629982,0.6703675286345476,0.03862735401869678,0.010515149248254045
2020-07-29 13:05:27.166,-0.135986328125,-1.051300048828125,0.1043701171875,-0.301633358001709,0.564337432384491,-0.06041061133146286,0.7418636225101999,0.6691917952414805,0.04089239188065981,0.012178498775079104
2020-07-29 13:05:27.176,-0.13629150390625,-1.08380126953125,0.08575439453125,-0.33114543557167053,0.578690767288208,-0.07523829489946365,0.742860714446161,0.6679028031763697,0.043267460939334076,0.013847964012447131
2020-07-29 13:05:27.186,-0.1267242431640625,-1.1131134033203125,0.0597686767578125,-0.3173161745071411,0.5926289558410645,-0.08772532641887665,0.743802496802481,0.6666516547063057,0.04574534438287278,0.01551677186368355
2020-07-29 13:05:27.195,-0.1040802001953125,-1.1291351318359375,0.0355682373046875,-0.2681395709514618,0.6185724139213562,-0.10703164339065552,0.7442136348757994,0.6660816329296742,0.04704997445172062,0.01635815058666845
2020-07-29 13:05:27.205,-0.0879058837890625,-1.13311767578125,0.0334320068359375,-0.23984481394290924,0.606325626373291,-0.12094426155090332,0.7449336601471584,0.6650401580038132,0.04971277421608481,0.01800030830881196
2020-07-29 13:05:27.216,-0.08917236328125,-1.130706787109375,0.0282135009765625,-0.2212948352098465,0.52159184217453,-0.12661786377429962,0.7455811019639406,0.6640819549311939,0.05221511238976786,0.019429040221283937
2020-07-29 13:05:27.226,-0.095703125,-1.12939453125,0.0030670166015625,-0.18721196055412292,0.3791622221469879,-0.13670271635055542,0.7461698294020894,0.6632218112256019,0.054308643394000926,0.020442692261847365
2020-07-29 13:05:27.235,-0.081085205078125,-1.1328277587890625,-0.0161590576171875,-0.13560070097446442,0.28735828399658203,-0.16394472122192383,0.7466482444297043,0.6625272910058356,0.05598972514323682,0.020951226526042265
2020-07-29 13:05:27.245,-0.0360870361328125,-1.128631591796875,-0.0026397705078125,-0.08147834986448288,0.29902905225753784,-0.17493613064289093,0.746961788342824,0.6620230007856694,0.0576385810745598,0.02124107688125039
2020-07-29 13:05:27.255,0.0270843505859375,-1.1227874755859375,0.0556182861328125,-0.015261510387063026,0.3325638473033905,-0.11120668053627014,0.7470648127950199,0.6617466688024547,0.059284693583416634,0.021697141108468394
2020-07-29 13:05:27.265,0.0717620849609375,-1.144195556640625,0.1204071044921875,0.02845241315662861,0.38419294357299805,-0.03110918402671814,0.7469408956376022,0.6617151690452673,0.06085455300110462,0.02256356590333769
2020-07-29 13:05:27.276,0.019195556640625,-1.1721649169921875,0.163299560546875,0.012917662970721722,0.38993391394615173,0.04523831978440285,0.7467695135228335,0.6617315036598306,0.06228232900292698,0.02382564752644109
2020-07-29 13:05:27.285,-0.1014404296875,-1.2151336669921875,0.1550445556640625,0.07132504880428314,0.3271043598651886,0.12183722108602524,0.7465517437304479,0.66182098279352,0.06335949736954657,0.025278843448617874
2020-07-29 13:05:27.295,-0.1678466796875,-1.28729248046875,0.117431640625,0.1862681359052658,0.2371843159198761,0.17334063351154327,0.7460255607992715,0.662304056440724,0.06393247674312404,0.026682065687106474
2020-07-29 13:05:27.305,-0.167236328125,-1.3253936767578125,0.0796051025390625,0.198859304189682,0.12095332145690918,0.17633801698684692,0.7452945333920366,0.663068145475449,0.06405009157698355,0.02782740045357445
2020-07-29 13:05:27.316,-0.1374053955078125,-1.3103179931640625,0.015472412109375,0.1289968639612198,-0.06682536751031876,0.18833954632282257,0.7447424440948479,0.6637034121511307,0.06359362409028743,0.02849926461509974
2020-07-29 13:05:27.325,-0.0439910888671875,-1.31646728515625,-0.087066650390625,0.1321500539779663,-0.261545866727829,0.2259330004453659,0.744360914703265,0.6642498075665466,0.06229169915920322,0.028614293093926844
2020-07-29 13:05:27.335,0.127197265625,-1.3486175537109375,-0.1625823974609375,0.16093403100967407,-0.3564808964729309,0.26342737674713135,0.7439528018705149,0.6649002491393178,0.06030818900784937,0.028372168409420334
2020-07-29 13:05:27.345,0.2332611083984375,-1.31964111328125,-0.2069091796875,0.20689165592193604,-0.369404673576355,0.3030354976654053,0.7426285167524537,0.6666228005637078,0.05737445716144071,0.028722454064848923
2020-07-29 13:05:27.355,0.236572265625,-1.2288665771484375,-0.2327728271484375,0.2823033332824707,-0.275592178106308,0.326856404542923,0.7418895138296873,0.6676370505783412,0.05512508991954192,0.028671437118729524
2020-07-29 13:05:27.365,0.1910858154296875,-1.1002960205078125,-0.2308502197265625,0.40068429708480835,-0.12900805473327637,0.3120332658290863,0.7407710269430972,0.669005745202241,0.05334644135132899,0.029046449884487433
2020-07-29 13:05:27.376,0.042449951171875,-0.9508819580078125,-0.2199249267578125,0.456976056098938,0.022287461906671524,0.269134521484375,0.7392963230525299,0.6706918318921983,0.05221787763699966,0.0297794275094684
2020-07-29 13:05:27.386,-0.128265380859375,-0.8605804443359375,-0.19256591796875,0.4442778527736664,0.15112294256687164,0.19698497653007507,0.737063732178499,0.6731467459256768,0.0512834837977429,0.03131248155096027
2020-07-29 13:05:27.395,-0.232452392578125,-0.837677001953125,-0.1601715087890625,0.36917272210121155,0.1996593177318573,0.10883726924657822,0.7356225490318008,0.6746590070215727,0.0514752417065864,0.0323269481395634
2020-07-29 13:05:27.405,-0.259979248046875,-0.843048095703125,-0.152679443359375,0.23169341683387756,0.16806437075138092,0.02791978232562542,0.7345602016060959,0.6757390611488833,0.052002062983409876,0.033074769682394894
2020-07-29 13:05:27.416,-0.1968841552734375,-0.877838134765625,-0.20220947265625,0.13475196063518524,0.051845353096723557,0.014753379859030247,0.7339344461498897,0.6763719526439718,0.05238238245815692,0.03342511273181188
2020-07-29 13:05:27.425,-0.0601348876953125,-0.9463348388671875,-0.2808990478515625,0.11880388110876083,-0.01872282102704048,-0.00013022858183830976,0.7329031656750854,0.677508515779579,0.051728627556564905,0.03404761779709432
2020-07-29 13:05:27.435,0.0941009521484375,-1.0021514892578125,-0.3105010986328125,0.15487585961818695,-0.00044075315236113966,-0.03642085939645767,0.7324719988113398,0.6779827973020153,0.051758812756770606,0.033840243206762204
2020-07-29 13:05:27.445,0.201019287109375,-1.0151824951171875,-0.3037109375,0.19993256032466888,0.04911481589078903,-0.06982302665710449,0.7318898843504489,0.6785986386136793,0.05205931354300017,0.03362846711032356
2020-07-29 13:05:27.455,0.217559814453125,-0.984283447265625,-0.277923583984375,0.2324870377779007,0.0784468725323677,-0.08894292265176773,0.7311618062740445,0.6793495008686999,0.052613371662995435,0.0334442421858029
2020-07-29 13:05:27.465,0.1809539794921875,-0.9346160888671875,-0.2569732666015625,0.2565974295139313,0.07673206180334091,-0.08705899864435196,0.7298605716878491,0.68072423299091,0.05267599171980845,0.03381120494406881
2020-07-29 13:05:27.475,0.1123504638671875,-0.8964080810546875,-0.2276763916015625,0.26005446910858154,0.07759412378072739,-0.09911566227674484,0.7289959470744397,0.6816100373709691,0.05331109001627005,0.0336254810848274
2020-07-29 13:05:27.485,0.036956787109375,-0.886810302734375,-0.2027587890625,0.2626049816608429,0.07888922095298767,-0.11776445060968399,0.7281208918015664,0.682502922989883,0.053998651651019185,0.03337412135347517
2020-07-29 13:05:27.495,-0.0168304443359375,-0.89410400390625,-0.1844482421875,0.26147207617759705,0.08611171692609787,-0.15267369151115417,0.7272388073479401,0.6833951152387638,0.054800112168227263,0.03304207682007845
2020-07-29 13:05:27.504,-0.042022705078125,-0.9059906005859375,-0.1651458740234375,0.25801342725753784,0.10051435977220535,-0.19062693417072296,0.7259727654274477,0.6847009309900989,0.055228391593354194,0.03313642965312045
2020-07-29 13:05:27.515,-0.04241943359375,-0.91845703125,-0.1504058837890625,0.24630458652973175,0.11007404327392578,-0.22302348911762238,0.7251309161932481,0.6855243144898047,0.056367784101323884,0.03262214285715593
2020-07-29 13:05:27.525,-0.013641357421875,-0.9189453125,-0.140106201171875,0.23743198812007904,0.11478810012340546,-0.23537389934062958,0.7243238416954182,0.6863010587298318,0.05760517953546583,0.03205391154385898
2020-07-29 13:05:27.535,0.0283966064453125,-0.901763916015625,-0.1291351318359375,0.2256014347076416,0.10906390100717545,-0.23574860394001007,0.7235546367252514,0.6870333782271368,0.05885932236332271,0.03145417499418078
2020-07-29 13:05:27.545,0.06207275390625,-0.8730010986328125,-0.1240081787109375,0.2072961926460266,0.09178957343101501,-0.2119535356760025,0.7225128179501906,0.6880759669324741,0.059521259650191505,0.03136845574602748
2020-07-29 13:05:27.555,0.0828094482421875,-0.84515380859375,-0.1222991943359375,0.1992529183626175,0.05932004749774933,-0.17860755324363708,0.7218353611730223,0.6887263609255223,0.06050170777640913,0.030810775331962102
2020-07-29 13:05:27.565,0.09234619140625,-0.8256988525390625,-0.1178741455078125,0.184422567486763,0.016627445816993713,-0.14477795362472534,0.7211995520549853,0.689352915868147,0.06122670290227576,0.03024793320950516
2020-07-29 13:05:27.575,0.1010894775390625,-0.8139801025390625,-0.111480712890625,0.16668592393398285,-0.03953249379992485,-0.10697465389966965,0.7206306953569351,0.6899366602225557,0.061639988799641394,0.029654214961143774
2020-07-29 13:05:27.585,0.09906005859375,-0.8072357177734375,-0.10498046875,0.1484360694885254,-0.0951978862285614,-0.07204809784889221,0.7198835954873479,0.690757625121549,0.0612753631309527,0.029441735527774602
2020-07-29 13:05:27.595,0.088348388671875,-0.802978515625,-0.1025543212890625,0.1298472136259079,-0.15257063508033752,-0.05052629113197327,0.7194634743340028,0.6912462137784573,0.06105034776706156,0.028700219374289807
2020-07-29 13:05:27.605,0.0810394287109375,-0.804656982421875,-0.1014404296875,0.10462840646505356,-0.2104720175266266,-0.03798999264836311,0.7191377681098452,0.6916641892373359,0.060560507314455544,0.02782051021032566
2020-07-29 13:05:27.615,0.0874786376953125,-0.80999755859375,-0.102142333984375,0.08080030977725983,-0.2623557150363922,-0.02599697932600975,0.7189087418302004,0.6920062313669796,0.05982226458362351,0.026809898574702676
2020-07-29 13:05:27.626,0.092926025390625,-0.8134307861328125,-0.103302001953125,0.0547037236392498,-0.30699217319488525,-0.021503960713744164,0.7185737455159565,0.6924979941418025,0.05847336595602139,0.026060294351092465
2020-07-29 13:05:27.635,0.1007843017578125,-0.822357177734375,-0.101287841796875,0.042632680386304855,-0.34774571657180786,-0.01853666640818119,0.7185181269276292,0.6926947240125128,0.057369752769795494,0.024785918888067957
2020-07-29 13:05:27.645,0.1083984375,-0.8361358642578125,-0.0997772216796875,0.026807911694049835,-0.3817500174045563,-0.015014901757240295,0.7185267199586197,0.6928369372827623,0.05611754873465877,0.023393099481990507
2020-07-29 13:05:27.655,0.11126708984375,-0.8583221435546875,-0.0923309326171875,0.0173246618360281,-0.3884667754173279,-0.009807889349758625,0.718581759734176,0.6929345765994277,0.054776467909177395,0.021940380982384895
2020-07-29 13:05:27.665,0.115692138671875,-0.8862152099609375,-0.07330322265625,0.022123411297798157,-0.37581703066825867,-0.008473379537463188,0.7184738634738104,0.6932122905627075,0.05307071905672113,0.02087033971111399
2020-07-29 13:05:27.675,0.1128997802734375,-0.9098968505859375,-0.051849365234375,0.0335124209523201,-0.34950312972068787,-0.01588362455368042,0.7184852310876024,0.6933367268439143,0.05179839391605995,0.019495384016431867
2020-07-29 13:05:27.685,0.10516357421875,-0.9223785400390625,-0.0302276611328125,0.0534171536564827,-0.3193625509738922,-0.022841399535536766,0.7184400658460571,0.6935023255085266,0.05066765835489136,0.01819643834590343
2020-07-29 13:05:27.695,0.0894012451171875,-0.932891845703125,-0.004791259765625,0.06759528815746307,-0.2857649028301239,-0.027112310752272606,0.7183276815594855,0.6937218895903307,0.04966545522394719,0.01699010420460322
2020-07-29 13:05:27.705,0.065948486328125,-0.94110107421875,0.0187225341796875,0.07059454172849655,-0.27141791582107544,-0.03453773632645607,0.7180218932743838,0.6941431032219447,0.04846649364606753,0.016152971872955255
2020-07-29 13:05:27.715,0.0517425537109375,-0.9468231201171875,0.03875732421875,0.0810818001627922,-0.276374876499176,-0.04151388630270958,0.7178417446313456,0.6944138529756496,0.04761930652892003,0.014996614876193297
2020-07-29 13:05:27.725,0.0554046630859375,-0.9612579345703125,0.0567169189453125,0.10037427395582199,-0.31861820816993713,-0.02912779152393341,0.7176154503315714,0.6947355829053911,0.04669724211330831,0.013775920584849652
2020-07-29 13:05:27.735,0.074981689453125,-0.9714813232421875,0.074127197265625,0.11679532378911972,-0.4086143970489502,0.010118148289620876,0.7173352813458878,0.6951341692533869,0.04543715133409772,0.012408318088168977
2020-07-29 13:05:27.745,0.1048736572265625,-0.975341796875,0.0972900390625,0.12911191582679749,-0.5276939272880554,0.05765876919031143,0.71685925396012,0.6957792905230163,0.043368080703772856,0.011097904105147521
2020-07-29 13:05:27.755,0.1513824462890625,-0.9662017822265625,0.1226959228515625,0.15492193400859833,-0.684778094291687,0.09781790524721146,0.716500543326554,0.6963244221504522,0.04092371705969655,0.009188701416888236
2020-07-29 13:05:27.765,0.198822021484375,-0.9444122314453125,0.1368255615234375,0.16369812190532684,-0.8546810746192932,0.13292954862117767,0.7161075605018907,0.6969348074606413,0.03775265271886624,0.00682756463433187
2020-07-29 13:05:27.775,0.2248992919921875,-0.9292449951171875,0.1577301025390625,0.1804257035255432,-0.9587087035179138,0.159373939037323,0.7156889418578729,0.6975803873616628,0.03397358495697259,0.004088159800406875
2020-07-29 13:05:27.785,0.24566650390625,-0.927886962890625,0.1712646484375,0.2317083328962326,-0.980149507522583,0.16333486139774323,0.7149258199199162,0.6985674428709551,0.029707675781176196,0.0013969393741639366
2020-07-29 13:05:27.795,0.2418670654296875,-0.9172210693359375,0.1619415283203125,0.30807873606681824,-0.9428660869598389,0.1345820426940918,0.7141364588175858,0.6995323741287438,0.025712596487369455,-0.0015405105980015937
2020-07-29 13:05:27.805,0.192169189453125,-0.9058380126953125,0.149078369140625,0.3785576820373535,-0.8548872470855713,0.08111083507537842,0.7130477900492563,0.7007531595083312,0.02210093819414677,-0.0044096048972195965
2020-07-29 13:05:27.815,0.1235809326171875,-0.9139404296875,0.1324310302734375,0.3617851138114929,-0.6881717443466187,0.017016533762216568,0.7118157738585952,0.7020698138144083,0.019142403906940407,-0.0070609162738959255
2020-07-29 13:05:27.826,0.0500640869140625,-0.97210693359375,0.103302001953125,0.22695378959178925,-0.40072956681251526,-0.050945740193128586,0.7105780416303007,0.7033538774216019,0.017071041558584448,-0.00899166560213491
2020-07-29 13:05:27.835,-0.0337066650390625,-1.069549560546875,0.05670166015625,0.11307382583618164,-0.05625608190894127,-0.011205250397324562,0.7100436557562368,0.7038959261455994,0.016395157464901968,-0.00998834069398416
2020-07-29 13:05:27.845,-0.1490020751953125,-1.1734771728515625,-0.011688232421875,0.16194921731948853,0.05458707734942436,0.09473023563623428,0.709589071932395,0.7043576800949237,0.016331868261690988,-0.009839731113815985
2020-07-29 13:05:27.855,-0.2294464111328125,-1.166961669921875,-0.00665283203125,0.17389030754566193,-0.10452933609485626,0.15543566644191742,0.7089969800699828,0.7049706843045558,0.015798822479871685,-0.009487657842927724
2020-07-29 13:05:27.865,-0.244110107421875,-1.025909423828125,0.1257171630859375,0.15921761095523834,-0.40084967017173767,0.07411684095859528,0.7082027532781539,0.7057972034991751,0.014267097713984454,-0.00977567834413607
2020-07-29 13:05:27.875,-0.1440277099609375,-0.883819580078125,0.2362518310546875,0.03827708214521408,-0.6397051215171814,-0.10478740185499191,0.7078590771201436,0.7061465245026173,0.01242053557267785,-0.011759405602609683
2020-07-29 13:05:27.885,0.0606689453125,-0.8692626953125,0.226776123046875,-0.19418838620185852,-0.6419051885604858,-0.3244537115097046,0.7081642983448065,0.7058069011606685,0.01083759106754843,-0.01491129365700842
2020-07-29 13:05:27.895,0.2319183349609375,-1.083984375,0.181060791015625,-0.3522621691226959,-0.3732824921607971,-0.542600691318512,0.709174914496136,0.7047150492466854,0.010528823181173461,-0.018355848399036617
2020-07-29 13:05:27.905,0.2412109375,-1.41131591796875,0.02581787109375,-0.24214711785316467,0.06345274299383163,-0.6943414807319641,0.7099744046609248,0.7038123276525995,0.012049046178235157,-0.020962593302163227
2020-07-29 13:05:27.915,0.0959014892578125,-1.634918212890625,-0.141571044921875,0.05017076060175896,0.31819555163383484,-0.7409643530845642,0.7102169725966561,0.7034448235750903,0.015353194170003366,-0.022838599988921356
2020-07-29 13:05:27.925,-0.136322021484375,-1.6640777587890625,-0.241302490234375,0.13872405886650085,0.35608914494514465,-0.753606379032135,0.7097096828216057,0.7038113303808299,0.019194712760836594,-0.02435682593807097
2020-07-29 13:05:27.935,-0.23614501953125,-1.5587005615234375,-0.30303955078125,0.1461915671825409,0.31339627504348755,-0.7877715826034546,0.709120589706315,0.7042302701802452,0.02311164079086471,-0.02595238270409437
2020-07-29 13:05:27.945,-0.1872711181640625,-1.433990478515625,-0.2650909423828125,0.28267085552215576,0.14587783813476562,-0.6970201134681702,0.7080645778523794,0.7051125199230862,0.026381634382937703,-0.027654789331175777
2020-07-29 13:05:27.955,-0.018035888671875,-1.2187957763671875,-0.2916259765625,0.2643320560455322,-0.018270617350935936,-0.5424597859382629,0.7069426620464105,0.706062972314603,0.02868103545791782,-0.029738636377901286
2020-07-29 13:05:27.965,0.2209320068359375,-1.0328521728515625,-0.2806243896484375,-0.02473650500178337,0.036558542400598526,-0.4754493534564972,0.7064339416957043,0.7064166370573451,0.030441996633885172,-0.031621163612413614
2020-07-29 13:05:27.975,0.3259124755859375,-0.99652099609375,-0.30206298828125,-0.1836196333169937,0.1927068680524826,-0.47895753383636475,0.7067960731352537,0.7059015000166826,0.03252782196393743,-0.03292795270638587
2020-07-29 13:05:27.985,0.244842529296875,-1.12640380859375,-0.383880615234375,-0.07249284535646439,0.2624302804470062,-0.49829715490341187,0.7070766850050793,0.7054685457978819,0.03495060726381054,-0.03369101385033149
2020-07-29 13:05:27.995,0.0572662353515625,-1.3184967041015625,-0.406951904296875,0.03443280979990959,0.25788798928260803,-0.4469718933105469,0.7070029236752701,0.7053681834298859,0.037564444363026334,-0.03451821247023925
2020-07-29 13:05:28.005,-0.03387451171875,-1.427886962890625,-0.3439483642578125,0.06781606376171112,0.2928023040294647,-0.3576124608516693,0.7067045971512098,0.7055108293080519,0.03993153659684299,-0.03505066794928721
2020-07-29 13:05:28.015,-0.0565185546875,-1.4220123291015625,-0.2723541259765625,0.09996414929628372,0.3625749945640564,-0.27351143956184387,0.7062954068267956,0.7057866077969542,0.042200122762590754,-0.03508822610393772
2020-07-29 13:05:28.026,-0.074615478515625,-1.3266143798828125,-0.2548980712890625,0.14908349514007568,0.4138919711112976,-0.16866278648376465,0.7057406837768,0.7062532681029536,0.04418194207114377,-0.034415010801816345
2020-07-29 13:05:28.035,-0.054962158203125,-1.1900634765625,-0.243133544921875,0.1645042598247528,0.4482848346233368,-0.062313176691532135,0.7050734940952931,0.7068473728808962,0.04608294547024401,-0.033386133767284734
2020-07-29 13:05:28.045,-0.0192718505859375,-1.0686187744140625,-0.19866943359375,0.13570989668369293,0.49801644682884216,0.03321840614080429,0.7044344019464306,0.7074432504636436,0.04776724856638665,-0.031850020249003075
2020-07-29 13:05:28.055,0.005401611328125,-0.98992919921875,-0.158294677734375,0.0830988809466362,0.5535454750061035,0.10091063380241394,0.7039474442583483,0.7079070657182632,0.049360942128024804,-0.029820695017955243
2020-07-29 13:05:28.065,0.008514404296875,-0.93963623046875,-0.1492156982421875,0.057311493903398514,0.5913605093955994,0.15739016234874725,0.7036275559617448,0.7082319437649289,0.05074262197837372,-0.027222078402960665
2020-07-29 13:05:28.075,-0.00299072265625,-0.900177001953125,-0.14434814453125,0.034335337579250336,0.5787602663040161,0.2115524560213089,0.7033508988951683,0.7085020252864045,0.05214836305104496,-0.02455260836761917
2020-07-29 13:05:28.085,-0.01776123046875,-0.8616485595703125,-0.128204345703125,0.009241967462003231,0.5319001078605652,0.24672776460647583,0.7031706617637757,0.708684897559748,0.0532923843851513,-0.02182925117746136
2020-07-29 13:05:28.095,-0.02734375,-0.8026580810546875,-0.1149444580078125,-0.010696319863200188,0.47115686535835266,0.2580645680427551,0.7030820433753938,0.7087837701590819,0.05415395049314565,-0.01920102172404859
2020-07-29 13:05:28.105,-0.02142333984375,-0.7355499267578125,-0.1095733642578125,-0.02304060384631157,0.4131937026977539,0.2369944304227829,0.7031222754375884,0.7087755848147919,0.05460075090390759,-0.01658503041459363
2020-07-29 13:05:28.115,0.0014801025390625,-0.678955078125,-0.1096954345703125,-0.041721880435943604,0.36054059863090515,0.20707967877388,0.703161989130776,0.7087378837906656,0.055172684933921384,-0.014481274855647708
2020-07-29 13:05:28.125,0.029998779296875,-0.64251708984375,-0.1128082275390625,-0.06296831369400024,0.32620686292648315,0.18956807255744934,0.703279433786543,0.7086175737068126,0.05567834230344593,-0.012618437419210943
2020-07-29 13:05:28.134,0.050262451171875,-0.62335205078125,-0.1174163818359375,-0.09121166914701462,0.34117117524147034,0.18530380725860596,0.703487822352118,0.7084012497314897,0.05617519709575676,-0.01081195541147009
2020-07-29 13:05:28.145,0.05169677734375,-0.623687744140625,-0.1242218017578125,-0.12584421038627625,0.3861735463142395,0.17718596756458282,0.7038968090892982,0.7079945683147201,0.05655227601912454,-0.008651126807285041
2020-07-29 13:05:28.155,0.0458221435546875,-0.6351470947265625,-0.1241912841796875,-0.17423412203788757,0.4536726772785187,0.16364778578281403,0.7043311273142259,0.7075139103564801,0.057432667982071584,-0.0065775683923619
2020-07-29 13:05:28.165,0.0205535888671875,-0.665313720703125,-0.118194580078125,-0.2257353961467743,0.5125288367271423,0.15069229900836945,0.7049238645722558,0.7068467012666801,0.058580486396324016,-0.0043054039009195405
2020-07-29 13:05:28.175,-0.0253143310546875,-0.712982177734375,-0.1163177490234375,-0.24556875228881836,0.5566712617874146,0.1081046313047409,0.7056237429527015,0.7060376386252429,0.06001849411782485,-0.0019346573885087827
2020-07-29 13:05:28.185,-0.058868408203125,-0.75079345703125,-0.128173828125,-0.23787514865398407,0.582802951335907,0.06758197396993637,0.7064544241833607,0.7050858405922436,0.061446463933689195,0.0006879359776832883
2020-07-29 13:05:28.195,-0.067657470703125,-0.7705841064453125,-0.135955810546875,-0.2147783488035202,0.5915836691856384,0.033957432955503464,0.7070929531423212,0.704270092862473,0.06335918382854819,0.0029584123311709155
2020-07-29 13:05:28.205,-0.041473388671875,-0.778472900390625,-0.1250457763671875,-0.17201091349124908,0.5621498823165894,0.03749757260084152,0.7076002573974062,0.7035728041508067,0.06527666901877094,0.005123326049474935
2020-07-29 13:05:28.216,-0.00872802734375,-0.786285400390625,-0.10882568359375,-0.15645645558834076,0.5252286195755005,0.04460741579532623,0.7079995668021861,0.7029853517998326,0.0670580022035394,0.007177436632568185
2020-07-29 13:05:28.225,0.02581787109375,-0.7952728271484375,-0.0933837890625,-0.16516685485839844,0.4938925504684448,0.05426936224102974,0.7085449656860401,0.7022813716121349,0.06837992881762756,0.009436337180049933
2020-07-29 13:05:28.235,0.059539794921875,-0.8272857666015625,-0.0780487060546875,-0.16420279443264008,0.46526914834976196,0.061297979205846786,0.7089793226953732,0.7016693392156539,0.06985794997811344,0.011330288508309905
2020-07-29 13:05:28.245,0.077667236328125,-0.8795318603515625,-0.055206298828125,-0.14838947355747223,0.46123018860816956,0.05640468746423721,0.7093797304534979,0.7010895390490348,0.07127951165796778,0.013162708366969986
2020-07-29 13:05:28.255,0.0779266357421875,-0.93792724609375,-0.031982421875,-0.1286490559577942,0.4609798789024353,0.03285994380712509,0.7097162005629941,0.7005634558921907,0.07273610699124579,0.014934361937502211
2020-07-29 13:05:28.265,0.06842041015625,-0.9934234619140625,-0.0055389404296875,-0.12018819153308868,0.45071685314178467,0.003192064817994833,0.7101383991351934,0.69995984370856,0.07399363012735041,0.01687186868713468
2020-07-29 13:05:28.275,0.056304931640625,-1.0306549072265625,0.018280029296875,-0.1306895762681961,0.4346585273742676,-0.020855214446783066,0.7104281850766467,0.6994575816796801,0.0755840062513196,0.01838271194651139
2020-07-29 13:05:28.285,0.0427093505859375,-1.0467681884765625,0.0387725830078125,-0.1644800305366516,0.43714991211891174,-0.03718758374452591,0.7107923217928512,0.6988710295208012,0.07721158771965676,0.019796232549634318
2020-07-29 13:05:28.295,0.0301666259765625,-1.045013427734375,0.0558319091796875,-0.22056086361408234,0.471988320350647,-0.04507533088326454,0.7113065201063506,0.6981108516257848,0.07894743243676726,0.02124959471297044
2020-07-29 13:05:28.305,0.012054443359375,-1.0292205810546875,0.070526123046875,-0.25705841183662415,0.5390655994415283,-0.04147500544786453,0.7120850834853849,0.6970683238773543,0.08058044070456254,0.02318265820686211
2020-07-29 13:05:28.316,-0.023895263671875,-0.9955291748046875,0.0719757080078125,-0.2543902099132538,0.6220827102661133,-0.029918484389781952,0.7127687671078651,0.6960481243789982,0.08274100881586124,0.025128581419585187
2020-07-29 13:05:28.325,-0.068695068359375,-0.9603424072265625,0.07135009765625,-0.20261329412460327,0.7135151624679565,-0.010241718962788582,0.7133169577720421,0.6951064603872801,0.08516705918013984,0.027432386450776846
2020-07-29 13:05:28.335,-0.1035919189453125,-0.9345550537109375,0.0774078369140625,-0.08375215530395508,0.8141043782234192,0.0025387913919985294,0.7135287289702619,0.6944410751337816,0.08788431295126624,0.030078589620485298
2020-07-29 13:05:28.345,-0.1240692138671875,-0.901641845703125,0.08154296875,0.09540428221225739,0.8997100591659546,0.03175473213195801,0.713221539923938,0.69425833029468,0.0905863293108071,0.033383579792953214
2020-07-29 13:05:28.355,-0.1420440673828125,-0.8735198974609375,0.0853118896484375,0.2513273060321808,0.9041631817817688,0.07418181747198105,0.7121957039348876,0.6947418024014324,0.09366072693989913,0.03659015331496699
2020-07-29 13:05:28.366,-0.163818359375,-0.882568359375,0.0805816650390625,0.30067142844200134,0.8183446526527405,0.0833609327673912,0.710800875853504,0.695607460328322,0.0965180046678799,0.03970531151232597
2020-07-29 13:05:28.375,-0.148590087890625,-0.9388580322265625,0.077789306640625,0.1804472655057907,0.5464556217193604,0.059843361377716064,0.7095867626230279,0.6963779891902128,0.09879930006854844,0.04222453690156031
2020-07-29 13:05:28.386,-0.056884765625,-1.0459747314453125,0.0263519287109375,-0.057072073221206665,0.05740603432059288,0.08237956464290619,0.7092811011212068,0.6965174426202979,0.09933437491429255,0.043776305437050855
2020-07-29 13:05:28.395,0.0762176513671875,-1.1938323974609375,-0.0760498046875,-0.05098675191402435,-0.17941370606422424,0.06734921038150787,0.7096104285010888,0.6962784531802937,0.0986818580140938,0.04371792894462241
2020-07-29 13:05:28.405,0.16796875,-1.2370147705078125,-0.0772247314453125,0.13491706550121307,-0.01756514422595501,-0.01612304337322712,0.7095181993774331,0.696461422669202,0.09821834857027542,0.043341213034523055
2020-07-29 13:05:28.416,0.2672576904296875,-1.1148681640625,0.071624755859375,0.23365482687950134,0.17728476226329803,0.03410949930548668,0.7088387497332529,0.697093238597776,0.0985771337881319,0.04348615380590274
2020-07-29 13:05:28.425,0.310455322265625,-1.0112762451171875,0.1598968505859375,0.2542879283428192,0.28197601437568665,0.21278230845928192,0.7078966445176567,0.6979402080910619,0.09874970969067191,0.04483680727857023
2020-07-29 13:05:28.435,0.1840667724609375,-1.0428009033203125,0.17840576171875,0.15198500454425812,0.2623322904109955,0.4567539691925049,0.7069532016744543,0.6987764614326643,0.09865110697313591,0.04686827683747424
2020-07-29 13:05:28.445,-0.059417724609375,-1.19488525390625,0.139312744140625,-0.020484501495957375,0.00478277076035738,0.7132065296173096,0.7065587392445053,0.6992170449662198,0.09711726257556472,0.0493802227126915
2020-07-29 13:05:28.455,-0.1547088623046875,-1.436248779296875,-0.0065155029296875,0.09460160881280899,-0.3249988555908203,0.8656285405158997,0.7063996671317284,0.6996830579810777,0.09372822803460944,0.05155655690623239
2020-07-29 13:05:28.465,0.0201263427734375,-1.589752197265625,-0.123291015625,0.36974263191223145,-0.31252434849739075,0.8300252556800842,0.7055628673342863,0.7009670283637248,0.08924199999549598,0.05349976858335328
2020-07-29 13:05:28.475,0.223602294921875,-1.4934539794921875,-0.1368408203125,0.5029808282852173,-0.07451311498880386,0.6274173259735107,0.7038762534880054,0.7029225000130805,0.08611429885648159,0.055159099220524
2020-07-29 13:05:28.485,0.196685791015625,-1.21221923828125,-0.1656646728515625,0.3807729184627533,0.0670115277171135,0.4850814640522003,0.702149689559289,0.704730818406652,0.08431076236028238,0.05684923997712333
2020-07-29 13:05:28.495,0.0441741943359375,-1.0449981689453125,-0.1714935302734375,0.27373912930488586,0.0891149640083313,0.44025009870529175,0.7008811522491992,0.7059973473512954,0.08308584330893842,0.058567395131846556
2020-07-29 13:05:28.505,-0.0950164794921875,-1.0438232421875,-0.229156494140625,0.23717845976352692,0.05909767374396324,0.43745777010917664,0.6999116645415081,0.7069747546337627,0.0815876542690245,0.060445462634893095
2020-07-29 13:05:28.515,-0.1344146728515625,-1.1085357666015625,-0.3027801513671875,0.21101529896259308,0.07859574258327484,0.37711772322654724,0.6989729685362974,0.7079004144676919,0.08044756834431736,0.06198413222590554
2020-07-29 13:05:28.525,-0.0597381591796875,-1.1276397705078125,-0.3337860107421875,0.1561019867658615,0.069121815264225,0.3399796783924103,0.6982006891985603,0.7086457964506111,0.07950026560623634,0.06337769856227295
2020-07-29 13:05:28.535,0.06573486328125,-1.1322021484375,-0.329010009765625,0.1405203640460968,0.06755374372005463,0.298345685005188,0.6975837860817775,0.7092344671787681,0.07865562734434185,0.06462777756780223
2020-07-29 13:05:28.545,0.1728668212890625,-1.17401123046875,-0.31414794921875,0.18965542316436768,0.028058798983693123,0.2656468451023102,0.6970482526778132,0.7097542108874779,0.0776460673453995,0.06590618719129812
2020-07-29 13:05:28.555,0.2380218505859375,-1.2170562744140625,-0.30413818359375,0.22986409068107605,-0.03062022663652897,0.23228783905506134,0.6962289205549489,0.7105795668929216,0.07682483864930405,0.0666322659995928
2020-07-29 13:05:28.565,0.249267578125,-1.2172088623046875,-0.2724761962890625,0.23133309185504913,-0.09504901617765427,0.19426988065242767,0.6953698051873015,0.7114824214213568,0.0759149681022921,0.06701174576421338
2020-07-29 13:05:28.575,0.2192230224609375,-1.191070556640625,-0.2449951171875,0.22050680220127106,-0.16812509298324585,0.12899020314216614,0.6945871276353232,0.7123528204058867,0.07495041860752144,0.06696593163372905
2020-07-29 13:05:28.585,0.1709747314453125,-1.167449951171875,-0.2344970703125,0.22461366653442383,-0.243467777967453,0.04506281763315201,0.6940304038565669,0.7130509648841548,0.07383179984398962,0.06655035961364411
2020-07-29 13:05:28.595,0.1259918212890625,-1.1408233642578125,-0.2292022705078125,0.22967474162578583,-0.3024757206439972,-0.03532390296459198,0.6933337292121989,0.7139207377136831,0.07295107445616907,0.06544922434019584
2020-07-29 13:05:28.605,0.0949859619140625,-1.0944976806640625,-0.2218170166015625,0.22942094504833221,-0.36507198214530945,-0.09256402403116226,0.6926699858999767,0.7147926003248369,0.07209905928553076,0.06388558744075104
2020-07-29 13:05:28.615,0.0757293701171875,-1.0471954345703125,-0.2075347900390625,0.234538733959198,-0.4156762957572937,-0.13264299929141998,0.6920350305649221,0.7156656307574003,0.07122087143362334,0.06195060945192003
2020-07-29 13:05:28.625,0.0770263671875,-1.0124053955078125,-0.1797943115234375,0.24071593582630157,-0.4512406885623932,-0.16167597472667694,0.6915978045901251,0.7163671215510165,0.07018866487790502,0.059868180328155704
2020-07-29 13:05:28.635,0.0910186767578125,-0.9761199951171875,-0.145599365234375,0.23487696051597595,-0.4714093506336212,-0.166639044880867,0.6909678920061908,0.7172593776081552,0.0692555279498704,0.057498949634770376
2020-07-29 13:05:28.645,0.101837158203125,-0.93499755859375,-0.117462158203125,0.21249788999557495,-0.47987258434295654,-0.15972308814525604,0.6903924966921384,0.7180981525041761,0.06825852830660968,0.0550815035770284
2020-07-29 13:05:28.655,0.1010894775390625,-0.898773193359375,-0.0995330810546875,0.18281562626361847,-0.4616539180278778,-0.14577850699424744,0.6899115795464424,0.7188327240738197,0.06723371908674082,0.052736716043466664
2020-07-29 13:05:28.665,0.0913543701171875,-0.87078857421875,-0.0933837890625,0.16611893475055695,-0.4391978681087494,-0.13628354668617249,0.6897209351603446,0.7192703152482269,0.06611664937986707,0.050633780328658326
2020-07-29 13:05:28.675,0.078460693359375,-0.847900390625,-0.09228515625,0.15504683554172516,-0.41317611932754517,-0.12090431898832321,0.6893339320951086,0.719873016716325,0.06515259951661631,0.048547179810300406
2020-07-29 13:05:28.685,0.0621795654296875,-0.8216094970703125,-0.0912933349609375,0.13367976248264313,-0.39334410429000854,-0.10500417649745941,0.688986532145848,0.720419575520831,0.06420229164354808,0.04659604270463502
2020-07-29 13:05:28.695,0.037872314453125,-0.7945098876953125,-0.08526611328125,0.10864578932523727,-0.3783662021160126,-0.08864837884902954,0.6887144463790482,0.7208790634151988,0.06325022461626842,0.04477955098800809
2020-07-29 13:05:28.705,0.005584716796875,-0.77020263671875,-0.0813751220703125,0.08166583627462387,-0.35952407121658325,-0.07485026866197586,0.688792527783712,0.7209940876198755,0.0621739171272971,0.04320616479288433
2020-07-29 13:05:28.715,-0.0223236083984375,-0.7462615966796875,-0.0752105712890625,0.058944810181856155,-0.34203723073005676,-0.07060865312814713,0.6886831371593415,0.7212722804404154,0.061240245765761266,0.041612040384191334
2020-07-29 13:05:28.725,-0.0304412841796875,-0.725006103515625,-0.0618743896484375,0.028175977990031242,-0.3298301100730896,-0.07942425459623337,0.6886627336247294,0.7214529435873894,0.0603591915234984,0.04007689082963928
2020-07-29 13:05:28.735,-0.0173797607421875,-0.7111358642578125,-0.0454559326171875,-0.013576795347034931,-0.323972225189209,-0.08877620846033096,0.6887691400783612,0.7215034689550257,0.05953115448273059,0.03854576647658216
2020-07-29 13:05:28.745,-0.003173828125,-0.7141876220703125,-0.0259857177734375,-0.07046511024236679,-0.3342277705669403,-0.09971886873245239,0.6893285749425383,0.721120245375186,0.05860735006425779,0.03710716220497928
2020-07-29 13:05:28.755,0.023590087890625,-0.72564697265625,-0.0123748779296875,-0.1421544849872589,-0.34084492921829224,-0.11000772565603256,0.6898416509245284,0.7207762821023824,0.05779533868493809,0.03549184919641947
2020-07-29 13:05:28.765,0.0597381591796875,-0.7485504150390625,-0.0080413818359375,-0.21673443913459778,-0.36381444334983826,-0.11776018887758255,0.6906283917522351,0.7201693833401053,0.05695547833868123,0.03383150136605884
2020-07-29 13:05:28.775,0.096343994140625,-0.7928009033203125,-0.0048675537109375,-0.2929258942604065,-0.4050412178039551,-0.11528025567531586,0.6916918020620514,0.7193044455487128,0.05599927087003612,0.03205757331346192
2020-07-29 13:05:28.785,0.1238250732421875,-0.83892822265625,-0.0121307373046875,-0.36918655037879944,-0.47004446387290955,-0.11231349408626556,0.6933168367068162,0.717915223229899,0.05472786977533307,0.03023863039080907
2020-07-29 13:05:28.796,0.138824462890625,-0.8695526123046875,-0.0222930908203125,-0.4443763792514801,-0.5439602136611938,-0.0953289121389389,0.6949503048126809,0.7165296113318167,0.05328473049832255,0.028110137242270128
2020-07-29 13:05:28.805,0.1509552001953125,-0.8802642822265625,-0.0310821533203125,-0.4443763792514801,-0.5439602136611938,-0.0953289121389389,0.6968248267941433,0.7149256352535212,0.05148035069082898,0.025813496947188357
2020-07-29 13:05:28.815,0.1570587158203125,-0.88262939453125,-0.031219482421875,-0.5190168023109436,-0.6807715892791748,-0.02846679463982582,0.6988452910644246,0.7131886274846574,0.04929583277075619,0.02338990751870852
2020-07-29 13:05:28.825,0.1461944580078125,-0.8729400634765625,-0.016510009765625,-0.5071550607681274,-0.7257896661758423,0.013559751212596893,0.7011392255788952,0.711183419363931,0.04669239954917104,0.021017931065815613
2020-07-29 13:05:28.835,0.129150390625,-0.85784912109375,0.0107574462890625,-0.47491538524627686,-0.7384905815124512,0.057083792984485626,0.7030672577250954,0.7095206539732278,0.04394293004551238,0.018592169830141017
2020-07-29 13:05:28.845,0.0999908447265625,-0.8525390625,0.043731689453125,-0.42431265115737915,-0.7667205929756165,0.113393135368824,0.7048407939095087,0.707995965977979,0.04094954725896729,0.016260585160877875
2020-07-29 13:05:28.855,0.0802154541015625,-0.8393402099609375,0.0670013427734375,-0.3479904532432556,-0.7736717462539673,0.17923447489738464,0.7063741684480588,0.7066962804122677,0.03765898105625692,0.014053659822274283
2020-07-29 13:05:28.865,0.05133056640625,-0.8289642333984375,0.0899810791015625,-0.249406099319458,-0.7377387881278992,0.22735938429832458,0.707825694527206,0.7054563283940721,0.03414160667304648,0.012190224312529419
2020-07-29 13:05:28.875,0.0156402587890625,-0.8306884765625,0.105621337890625,-0.12697365880012512,-0.678729772567749,0.2277631163597107,0.708618175852225,0.7048415464586046,0.030804472925165555,0.010476641761370406
2020-07-29 13:05:28.885,0.0126495361328125,-0.8445892333984375,0.112945556640625,0.01762267015874386,-0.5899591445922852,0.17294541001319885,0.7089139512161011,0.7046896311459714,0.027821782393172265,0.008909254004359227
2020-07-29 13:05:28.895,0.027618408203125,-0.88037109375,0.11712646484375,0.13574372231960297,-0.4799343943595886,0.06668182462453842,0.7087078772212152,0.7050028340353663,0.025486624426979673,0.007380875900838349
2020-07-29 13:05:28.905,0.0601348876953125,-0.9468231201171875,0.11102294921875,0.13574372231960297,-0.4799343943595886,0.06668182462453842,0.7083898320050019,0.7053950878467473,0.02381296823663601,0.00587073215791004
2020-07-29 13:05:28.915,0.0802001953125,-1.0528106689453125,0.10260009765625,0.1824859231710434,-0.3083202838897705,-0.05109274387359619,0.7077686584550666,0.7060656186746977,0.022710850623960416,0.004371369976385423
2020-07-29 13:05:28.925,0.0561981201171875,-1.172882080078125,0.108062744140625,0.10163687914609909,-0.0998712033033371,-0.033372070640325546,0.7072927194963691,0.7065668103468933,0.02211106661965036,0.00339259109044095
2020-07-29 13:05:28.935,-0.0130767822265625,-1.2737579345703125,0.0880584716796875,0.04734114930033684,0.16379399597644806,-0.01594008505344391,0.7070645367606176,0.7067885678334385,0.022319822004628485,0.003371776643416059
2020-07-29 13:05:28.945,-0.0802764892578125,-1.308135986328125,0.065643310546875,0.09711190313100815,0.2681480944156647,0.002377403900027275,0.7070136632091493,0.7068104500005626,0.0230913463454822,0.004176799292774926
2020-07-29 13:05:28.955,-0.1250762939453125,-1.241729736328125,0.1143341064453125,0.14027242362499237,0.18430592119693756,-0.009255283512175083,0.7065658981124227,0.7072255644807593,0.023920266392593342,0.00494184264602595
2020-07-29 13:05:28.965,-0.1270751953125,-1.1295318603515625,0.21160888671875,0.042095255106687546,0.010742392390966415,-0.10908734053373337,0.7062156560549685,0.7075558992568165,0.024467359985187072,0.0050357635368463135
2020-07-29 13:05:28.976,-0.031646728515625,-1.054901123046875,0.2556915283203125,-0.13064509630203247,-0.10512082278728485,-0.2806510925292969,0.7064038149485014,0.7073570855719382,0.024951361774530022,0.004112787050858669
2020-07-29 13:05:28.986,0.11553955078125,-1.10809326171875,0.245452880859375,-0.29230669140815735,-0.04543619230389595,-0.4629250466823578,0.707365219384993,0.7063697430334324,0.02587890922815581,0.0025524663782954694
2020-07-29 13:05:28.995,0.2003173828125,-1.3071746826171875,0.1460723876953125,-0.2813299298286438,0.17744748294353485,-0.6361985802650452,0.7084414692478542,0.7052124465001466,0.028025119166588796,0.0007974458361553853
2020-07-29 13:05:29.005,0.175933837890625,-1.499603271484375,-0.0139312744140625,-0.058330684900283813,0.40436506271362305,-0.7963080406188965,0.70903692179258,0.7044613772048717,0.03162756608287053,-0.0007231737974491949
2020-07-29 13:05:29.015,0.0546112060546875,-1.5544891357421875,-0.1081695556640625,0.18119721114635468,0.3784168064594269,-0.8594947457313538,0.7087415082025842,0.7045437197113082,0.03603248840729973,-0.0022965837892551305
2020-07-29 13:05:29.025,-0.06756591796875,-1.475189208984375,-0.171844482421875,0.33391860127449036,0.17716625332832336,-0.818374752998352,0.7079091791761978,0.7051624490215297,0.03989258886983635,-0.004360742379934528
2020-07-29 13:05:29.035,-0.0416107177734375,-1.3374786376953125,-0.208587646484375,0.4342782199382782,0.026130670681595802,-0.727447509765625,0.7065195058640668,0.7063529899739013,0.04299431101731467,-0.006866630498294346
2020-07-29 13:05:29.045,0.1034698486328125,-1.191375732421875,-0.1451873779296875,0.47725337743759155,-0.1684928685426712,-0.6020485758781433,0.7048698026212563,0.7078381226785065,0.045066775222579014,-0.009631664078298198
2020-07-29 13:05:29.055,0.233917236328125,-1.05596923828125,-0.13531494140625,0.2839893698692322,-0.2682146728038788,-0.5414350032806396,0.7035095919710338,0.7090687644719227,0.046232168497374666,-0.012584077714038048
2020-07-29 13:05:29.065,0.3817291259765625,-0.998565673828125,-0.1823577880859375,0.0986834317445755,-0.1884647160768509,-0.5782281756401062,0.7030750774994252,0.7093749465748292,0.04727617997785638,-0.015413257210631331
2020-07-29 13:05:29.075,0.38037109375,-1.0289154052734375,-0.2650299072265625,0.09738753736019135,-0.18030638992786407,-0.5695905089378357,0.7027610465398777,0.7095242963630712,0.048707238224317904,-0.018157266000260738
2020-07-29 13:05:29.085,0.242828369140625,-1.090118408203125,-0.3762359619140625,0.09738753736019135,-0.18030638992786407,-0.5695905089378357,0.7024448457761914,0.7096820863597263,0.049878923906539474,-0.02084734293205657
2020-07-29 13:05:29.095,0.1162109375,-1.14483642578125,-0.4105987548828125,0.016019713133573532,-0.227979376912117,-0.3965313732624054,0.7023124714631755,0.7096823494890231,0.05064822782246201,-0.023304215660348886
2020-07-29 13:05:29.105,0.031158447265625,-1.2356719970703125,-0.375213623046875,0.047928377985954285,-0.17408818006515503,-0.2818295657634735,0.7024442166818501,0.7094571118130336,0.05105431427227781,-0.02522222946520489
2020-07-29 13:05:29.116,-0.0339813232421875,-1.3244171142578125,-0.321990966796875,0.1487756222486496,-0.11687149107456207,-0.15040920674800873,0.7021181727976775,0.7097130910574108,0.05129129202614524,-0.026585261851070578
2020-07-29 13:05:29.125,-0.0904083251953125,-1.3169708251953125,-0.252227783203125,0.2126917541027069,-0.0659172311425209,-0.04252668842673302,0.7014876999291065,0.7103083793574835,0.05127711394333116,-0.02734136274242455
2020-07-29 13:05:29.136,-0.0898590087890625,-1.18603515625,-0.1908416748046875,0.2081499993801117,-0.011665711179375648,0.04188992455601692,0.7007600908715135,0.7110287902547593,0.05110891891461306,-0.02759020483802271
2020-07-29 13:05:29.145,-0.0460205078125,-1.030059814453125,-0.1597137451171875,0.2091369777917862,0.05500173196196556,0.11475002020597458,0.7002339417868508,0.7115834850387923,0.05076703796575501,-0.027276742489679744
2020-07-29 13:05:29.155,-0.0281524658203125,-0.93896484375,-0.1437835693359375,0.21410083770751953,0.15529051423072815,0.17595265805721283,0.6994810859186857,0.712366165152043,0.05057939536264527,-0.026501477136444684
2020-07-29 13:05:29.165,-0.0411834716796875,-0.8901519775390625,-0.1242523193359375,0.19289381802082062,0.2674034833908081,0.2161109894514084,0.6987388431063831,0.7131420841033747,0.05059160696325753,-0.02515827488500661
2020-07-29 13:05:29.175,-0.0674896240234375,-0.8626556396484375,-0.1180267333984375,0.16056518256664276,0.3490312397480011,0.24689926207065582,0.6980753900979155,0.7138365175415097,0.050830081883433256,-0.023332949869298306
2020-07-29 13:05:29.186,-0.08770751953125,-0.841400146484375,-0.121673583984375,0.11626748740673065,0.3927914798259735,0.2737548351287842,0.6977447247930124,0.7142123578538012,0.05107530868496425,-0.02107821940721684
2020-07-29 13:05:29.196,-0.1016998291015625,-0.82379150390625,-0.11944580078125,0.11626748740673065,0.3927914798259735,0.2737548351287842,0.6973725002759562,0.7146116674704451,0.05148274950851479,-0.018741705901008036
2020-07-29 13:05:29.206,-0.0902252197265625,-0.8040618896484375,-0.1110687255859375,-0.011174357496201992,0.4221685528755188,0.2632414996623993,0.6972220021971008,0.7147817559701478,0.05196715605006554,-0.01636751017979568
2020-07-29 13:05:29.216,-0.0590667724609375,-0.7793121337890625,-0.106475830078125,-0.07592964917421341,0.4179924428462982,0.23542369902133942,0.6973035297073962,0.7147093004974399,0.052546837762983606,-0.014041500759541097
2020-07-29 13:05:29.226,-0.024078369140625,-0.754547119140625,-0.110076904296875,-0.12696434557437897,0.39989572763442993,0.22275450825691223,0.6978534269226603,0.7141798192413207,0.0530198771793811,-0.011683996573546044
2020-07-29 13:05:29.236,-0.001953125,-0.7330474853515625,-0.116973876953125,-0.1700849086046219,0.3794775605201721,0.21001741290092468,0.6983095264371488,0.7137216654270062,0.053612147120487244,-0.009540617047357628
2020-07-29 13:05:29.246,0.012115478515625,-0.7226104736328125,-0.116180419921875,-0.1700849086046219,0.3794775605201721,0.21001741290092468,0.6989057313640054,0.7131171191808005,0.054204236469477744,-0.0075174597586253
2020-07-29 13:05:29.256,0.02178955078125,-0.723541259765625,-0.1085968017578125,-0.24111753702163696,0.3819420337677002,0.1500619351863861,0.6996285825785178,0.7123721983465252,0.05490573283255425,-0.005579558177514307
2020-07-29 13:05:29.265,0.0230255126953125,-0.7392425537109375,-0.1000518798828125,-0.24111753702163696,0.3819420337677002,0.1500619351863861,0.7006967681860636,0.711275124541659,0.05566514330875216,-0.0036092795952657845
2020-07-29 13:05:29.276,0.021240234375,-0.760650634765625,-0.088348388671875,-0.25119495391845703,0.3909802734851837,0.10319749265909195,0.7014881394946965,0.7104134863954359,0.05677557729985642,-0.0019011663984701069
2020-07-29 13:05:29.285,0.0185089111328125,-0.7698211669921875,-0.085906982421875,-0.24730220437049866,0.3987010419368744,0.06271877139806747,0.7022441338845741,0.7095687049246304,0.05801134175493328,-0.0002913685334378236
2020-07-29 13:05:29.295,0.0142059326171875,-0.7681121826171875,-0.083160400390625,-0.23136451840400696,0.4004749655723572,0.03581099584698677,0.7029175734726043,0.7087912331720135,0.059332849648493516,0.0012528073992232177
2020-07-29 13:05:29.305,0.02069091796875,-0.768280029296875,-0.0821075439453125,-0.20323221385478973,0.4097406566143036,0.0242608655244112,0.7037541730430823,0.7078531415501988,0.06054261851046776,0.002940672523625077
2020-07-29 13:05:29.316,0.0259552001953125,-0.7836761474609375,-0.07745361328125,-0.1726367473602295,0.4168475568294525,0.02424142323434353,0.7041988663992335,0.7072842922641082,0.06190793776676039,0.004511055086844606
2020-07-29 13:05:29.326,0.03277587890625,-0.8062591552734375,-0.0673980712890625,-0.14454865455627441,0.4142459034919739,0.03387727215886116,0.7045694814438795,0.7067902563966562,0.06318495831472484,0.006087167014539092
2020-07-29 13:05:29.335,0.0414886474609375,-0.8273162841796875,-0.056671142578125,-0.12713371217250824,0.3976341784000397,0.04932546988129616,0.7047340916151666,0.7065658190905018,0.06377736690139879,0.0068623436917328385
2020-07-29 13:05:29.345,0.052825927734375,-0.8508453369140625,-0.04376220703125,-0.12258530408143997,0.3747866451740265,0.06229053810238838,0.7055311104987139,0.7056102828400798,0.06521783097069171,0.009308188766952392
2020-07-29 13:05:29.356,0.0559234619140625,-0.8803558349609375,-0.0309600830078125,-0.13922527432441711,0.3562462627887726,0.0805789977312088,0.7059511340613852,0.7050827413651113,0.06613136436460335,0.010863100454029752
2020-07-29 13:05:29.366,0.049224853515625,-0.9224853515625,-0.01165771484375,-0.15810760855674744,0.3478815257549286,0.09754173457622528,0.7064416870106847,0.7044811419132909,0.0670189963310897,0.012445354845972804
2020-07-29 13:05:29.376,0.046630859375,-0.9659271240234375,0.01068115234375,-0.17648129165172577,0.3515993058681488,0.09158451110124588,0.7069954017310973,0.7038078104495015,0.06794614182700387,0.01397920567170575
2020-07-29 13:05:29.386,0.040802001953125,-0.9936065673828125,0.0362091064453125,-0.19649361073970795,0.3451012074947357,0.07236874103546143,0.7078807247816243,0.7028039412681855,0.0687735920480545,0.01554745494648544
2020-07-29 13:05:29.396,0.030487060546875,-1.0035552978515625,0.0640411376953125,-0.2144012451171875,0.3414041996002197,0.046299852430820465,0.7085690218719212,0.7019704207877798,0.06986420586757365,0.01692944868737733
2020-07-29 13:05:29.405,0.01165771484375,-0.9908599853515625,0.0807647705078125,-0.23432089388370514,0.35910624265670776,0.026695260778069496,0.7089300399929509,0.7015285367590849,0.07046410809479796,0.017631264793550025
2020-07-29 13:05:29.416,-0.01812744140625,-0.9467620849609375,0.0785675048828125,-0.2378929853439331,0.39437687397003174,0.015808524563908577,0.7099511077456535,0.7002252564536164,0.07251646917027814,0.019881909760567765
2020-07-29 13:05:29.425,-0.0522613525390625,-0.9027862548828125,0.066741943359375,-0.21170079708099365,0.4332542419433594,0.010249707847833633,0.7106770755021878,0.6992874958738681,0.07392621356473003,0.021679297387905555
2020-07-29 13:05:29.435,-0.082733154296875,-0.880523681640625,0.0780487060546875,-0.14129188656806946,0.4863446056842804,0.007256581448018551,0.7107754817972805,0.6989263594287658,0.0758035506200283,0.023537761831270813
2020-07-29 13:05:29.445,-0.112945556640625,-0.8587646484375,0.10382080078125,-0.013400760479271412,0.5927954316139221,-0.001668736687861383,0.7103013968733918,0.6990649627511923,0.07820576666711987,0.025764086093625058
2020-07-29 13:05:29.455,-0.159393310546875,-0.838226318359375,0.12982177734375,0.15111947059631348,0.7346356511116028,-0.008448878303170204,0.7092818732340053,0.6996821335478034,0.08101045763335339,0.028308356725233734
2020-07-29 13:05:29.466,-0.216888427734375,-0.856170654296875,0.1358184814453125,0.250080406665802,0.8033851385116577,-0.00914582796394825,0.7084718952388853,0.7000775885859818,0.08367415326773125,0.03094388384775265
2020-07-29 13:05:29.475,-0.2257537841796875,-0.95281982421875,0.0831451416015625,0.12072082608938217,0.7063986659049988,-0.03861397132277489,0.7082991317573362,0.7000667339261019,0.08486254636278248,0.03189393764978016
2020-07-29 13:05:29.486,-0.082244873046875,-1.1601409912109375,-0.068206787109375,-0.408890038728714,-0.2262384593486786,-0.02545342780649662,0.7097697250323868,0.6984408856715086,0.08580459084370727,0.032326455971189584
2020-07-29 13:05:29.495,0.1102294921875,-1.37127685546875,-0.17449951171875,-0.408890038728714,-0.2262384593486786,-0.02545342780649662,0.71092744049887,0.6973953487492638,0.08502943638440046,0.031491517201197895
2020-07-29 13:05:29.505,0.2682342529296875,-1.357879638671875,-0.0062408447265625,-0.15745966136455536,-0.1826678216457367,-0.048470064997673035,0.7113348016114461,0.6970239007971281,0.08472818558367033,0.031330078429687616
2020-07-29 13:05:29.516,0.4477081298828125,-1.1359710693359375,0.187286376953125,0.061766695231199265,0.053948719054460526,-0.08940977603197098,0.7109243462552876,0.697334716784516,0.08558464558665235,0.03140343609008682
2020-07-29 13:05:29.526,0.3982696533203125,-0.9905853271484375,0.212677001953125,0.13801512122154236,0.24009887874126434,0.014121411368250847,0.7101719993198965,0.6979451204147201,0.0863458165736178,0.0327503779167182
2020-07-29 13:05:29.536,0.129302978515625,-1.0515289306640625,0.2438812255859375,0.21451282501220703,0.37178659439086914,0.21293170750141144,0.7090927109723666,0.6988825196495401,0.08668518152071408,0.03516096499096225
2020-07-29 13:05:29.546,-0.1324615478515625,-1.2502899169921875,0.2650909423828125,0.2771373391151428,0.4159359633922577,0.4297122359275818,0.7080836272863591,0.6998202403428438,0.08608178074652484,0.03819961484095081
2020-07-29 13:05:29.555,-0.27191162109375,-1.4092254638671875,0.1620635986328125,0.25565654039382935,0.27871978282928467,0.5727266073226929,0.7075592399942748,0.7003555641236059,0.08544103016451046,0.039521781217939006
2020-07-29 13:05:29.566,-0.2208251953125,-1.45751953125,-0.0027008056640625,0.2549228370189667,-0.04634113237261772,0.6366427540779114,0.7060331846584591,0.7022037928946852,0.08157872382268208,0.04209452990350419
2020-07-29 13:05:29.575,0.033355712890625,-1.4271087646484375,-0.0689544677734375,0.30612877011299133,-0.278363436460495,0.6458165645599365,0.7054771191789245,0.7029070683644403,0.08002963814598607,0.042647682915467625
2020-07-29 13:05:29.585,0.207122802734375,-1.292877197265625,-0.125335693359375,0.3334099352359772,-0.19541716575622559,0.5665954947471619,0.7044611456835559,0.7041586860015755,0.0772393938362188,0.04392010576479455
2020-07-29 13:05:29.595,0.22662353515625,-1.1599884033203125,-0.192535400390625,0.2853268086910248,-0.10789371281862259,0.5005573630332947,0.7034038347030466,0.7053639243852945,0.07513468603175155,0.04515977556500447
2020-07-29 13:05:29.605,0.138763427734375,-1.1171112060546875,-0.2519989013671875,0.24329467117786407,-0.04990710690617561,0.5066456198692322,0.702437949428825,0.7064318642214634,0.07322240521432784,0.04661935573120423
2020-07-29 13:05:29.615,0.031768798828125,-1.0897216796875,-0.3045196533203125,0.30247172713279724,-0.0021899172570556402,0.5286816954612732,0.7012628183020484,0.7076684769535152,0.07142840037483583,0.04830805077311521
2020-07-29 13:05:29.625,-0.026031494140625,-1.028533935546875,-0.3163604736328125,0.3336389660835266,0.07351549714803696,0.5169088840484619,0.7001679559352273,0.7087752685054451,0.0697871484247168,0.05031994517122264
2020-07-29 13:05:29.635,-0.0335540771484375,-0.9934234619140625,-0.3124237060546875,0.2612537145614624,0.09461705386638641,0.47544029355049133,0.6991061569285084,0.7098148674161293,0.06850486420311942,0.052159213535660776
2020-07-29 13:05:29.646,0.01861572265625,-1.0511016845703125,-0.2894287109375,0.18343640863895416,0.0966101661324501,0.3894047439098358,0.6983133431808876,0.7105744874558009,0.06749295632253649,0.05373127905606445
2020-07-29 13:05:29.655,0.1017608642578125,-1.1530609130859375,-0.279205322265625,0.21489419043064117,0.05264829844236374,0.29481086134910583,0.6974616782272751,0.7114044386802959,0.06667834059570235,0.05481755704213051
2020-07-29 13:05:29.665,0.1555938720703125,-1.20794677734375,-0.259063720703125,0.28995537757873535,-0.019808592274785042,0.2021310031414032,0.696626602706566,0.7122525641923367,0.06584256787859735,0.055427944687110195
2020-07-29 13:05:29.675,0.18670654296875,-1.210235595703125,-0.237640380859375,0.32132238149642944,-0.08159419149160385,0.1294996738433838,0.6954968547473207,0.7134162992071182,0.06517531080739153,0.05543809313592888
2020-07-29 13:05:29.685,0.1944427490234375,-1.19757080078125,-0.223968505859375,0.32413172721862793,-0.1307407021522522,0.0840243324637413,0.6943727881944503,0.7145962329770799,0.0645097956182911,0.05511078783067663
2020-07-29 13:05:29.695,0.1729736328125,-1.178436279296875,-0.2133941650390625,0.34033840894699097,-0.16718871891498566,0.04595896974205971,0.693216215791485,0.7158228642861943,0.06385573065088661,0.054509085670817754
2020-07-29 13:05:29.705,0.1395416259765625,-1.1408233642578125,-0.193359375,0.3555373251438141,-0.20582853257656097,0.008330367505550385,0.6922334103092765,0.7168992569814852,0.06311788511599303,0.053708999912814456
2020-07-29 13:05:29.715,0.1064910888671875,-1.09356689453125,-0.1710968017578125,0.35100090503692627,-0.2536011040210724,-0.025587918236851692,0.6910795334541822,0.7181586177143121,0.06241944622945849,0.05254465177520545
2020-07-29 13:05:29.725,0.0850982666015625,-1.0624542236328125,-0.1448516845703125,0.32826122641563416,-0.303802490234375,-0.05477536469697952,0.6900198796874709,0.7193470279248149,0.06165042261777182,0.051105267109135856
2020-07-29 13:05:29.735,0.0956573486328125,-1.03363037109375,-0.11798095703125,0.31151580810546875,-0.34147024154663086,-0.08362565189599991,0.6890372334256353,0.7204727793260264,0.06084646355460133,0.04944053622258106
2020-07-29 13:05:29.745,0.104400634765625,-0.9999847412109375,-0.0927734375,0.2999057471752167,-0.3629356026649475,-0.09412410110235214,0.6883254842539261,0.7213448544481902,0.05993204196503468,0.047726644331343014
2020-07-29 13:05:29.755,0.0944976806640625,-0.960113525390625,-0.0713043212890625,0.2750494182109833,-0.3750665485858917,-0.08847207576036453,0.6874881706015971,0.7223333076692608,0.059029022239478784,0.04593662829473335
2020-07-29 13:05:29.765,0.0806732177734375,-0.9160003662109375,-0.057281494140625,0.2379521131515503,-0.3646615743637085,-0.07763034850358963,0.6867712860088944,0.7231965313752138,0.05811093693699655,0.04421658098547029
2020-07-29 13:05:29.775,0.0713653564453125,-0.8736114501953125,-0.0519256591796875,0.2008364349603653,-0.3589951694011688,-0.08019017428159714,0.6861867280379694,0.7239241064649108,0.05721274206975682,0.042525690954158694
2020-07-29 13:05:29.785,0.0655517578125,-0.8417816162109375,-0.0482330322265625,0.15774062275886536,-0.35286909341812134,-0.0894441306591034,0.6859932180013378,0.7242735681730423,0.05628888160371421,0.040896902587838374
2020-07-29 13:05:29.795,0.0614166259765625,-0.82354736328125,-0.0441436767578125,0.1060396134853363,-0.3513292670249939,-0.09582798928022385,0.6857485925075063,0.7246635477839949,0.055446954094879604,0.03920652100877689
2020-07-29 13:05:29.804,0.0518798828125,-0.8154296875,-0.0482177734375,0.04343642294406891,-0.35823431611061096,-0.09149103611707687,0.6857248463047988,0.724842555930351,0.05455690433036396,0.0375262242984754
2020-07-29 13:05:29.815,0.039886474609375,-0.800750732421875,-0.0556640625,-0.017434118315577507,-0.36834821105003357,-0.08122321963310242,0.6859132689736409,0.7248204702539008,0.05359167347155286,0.035864258187822705
2020-07-29 13:05:29.825,0.0313262939453125,-0.7761688232421875,-0.055694580078125,-0.061943262815475464,-0.3662067651748657,-0.0727037638425827,0.6865312235908619,0.7243890284200115,0.05252171772113097,0.03430349760015797
2020-07-29 13:05:29.835,0.0329742431640625,-0.751190185546875,-0.0445098876953125,-0.09224923700094223,-0.36072278022766113,-0.0732576996088028,0.686990773413056,0.724097852913177,0.051530453986436034,0.03271725571916562
2020-07-29 13:05:29.845,0.0390472412109375,-0.7305450439453125,-0.0294647216796875,-0.12536963820457458,-0.3497830331325531,-0.0732896625995636,0.6875648179248346,0.7236888338240832,0.05056848773060396,0.031175910403059913
2020-07-29 13:05:29.855,0.042327880859375,-0.72467041015625,-0.014495849609375,-0.1736261248588562,-0.33653566241264343,-0.08035343140363693,0.6883088671948898,0.723107487291875,0.04966537771614074,0.029662898078327195
2020-07-29 13:05:29.865,0.052490234375,-0.741455078125,-0.0060882568359375,-0.23611080646514893,-0.33582353591918945,-0.09465034306049347,0.68954930336848,0.7220464364152083,0.048746485287705185,0.028188412328366712
2020-07-29 13:05:29.875,0.066131591796875,-0.774810791015625,-0.0050201416015625,-0.3037172853946686,-0.3278127610683441,-0.10275433957576752,0.6907555009143562,0.7210043504385433,0.04794294901045723,0.02666590900316171
2020-07-29 13:05:29.885,0.0743408203125,-0.8042449951171875,-0.0025177001953125,-0.3645577132701874,-0.32773205637931824,-0.1131419986486435,0.6921792150408845,0.7197443684457291,0.04716539566045019,0.025127370227148026
2020-07-29 13:05:29.895,0.083282470703125,-0.8282318115234375,0.001708984375,-0.41830724477767944,-0.33649492263793945,-0.11343707889318466,0.6937939031110723,0.7182945370246386,0.04634440432771438,0.023560385578142145
2020-07-29 13:05:29.905,0.0864105224609375,-0.840667724609375,-0.000274658203125,-0.4673895537853241,-0.3666839897632599,-0.10688383877277374,0.6958480302165058,0.716419630331149,0.04533645880791476,0.02197651548365645
2020-07-29 13:05:29.916,0.08721923828125,-0.843536376953125,-0.001434326171875,-0.510319709777832,-0.4091845750808716,-0.09429880231618881,0.697801134427366,0.7146408362800913,0.044186809902123175,0.0202383728246976
2020-07-29 13:05:29.925,0.097259521484375,-0.84613037109375,-0.0054473876953125,-0.5456870198249817,-0.4651101529598236,-0.06950370967388153,0.6998685411205715,0.712753070652309,0.042761590941455006,0.018401041960767167
2020-07-29 13:05:29.935,0.10748291015625,-0.844696044921875,0.010345458984375,-0.5512959361076355,-0.5176194310188293,-0.044802624732255936,0.7019567480996505,0.7108450920805328,0.041045698765296706,0.016469289268955106
2020-07-29 13:05:29.945,0.1168670654296875,-0.8419342041015625,0.035491943359375,-0.5306169986724854,-0.5823702216148376,0.0046568033285439014,0.7042216419721559,0.7087661810553613,0.03888298642808168,0.01451411025995726
2020-07-29 13:05:29.955,0.128814697265625,-0.8325653076171875,0.0611419677734375,-0.47815218567848206,-0.6579467058181763,0.06891648471355438,0.7060510881837916,0.7071213799266994,0.03627646837289836,0.012459517250141277
2020-07-29 13:05:29.965,0.1229705810546875,-0.8212890625,0.074462890625,-0.40197861194610596,-0.7264834642410278,0.1395067572593689,0.7075964273948494,0.7057598092229681,0.033198841682156165,0.010400300497909729
2020-07-29 13:05:29.975,0.0903472900390625,-0.8201141357421875,0.090972900390625,-0.2904722988605499,-0.7632654309272766,0.19450582563877106,0.7087563989606377,0.7047729498564053,0.029812267669190373,0.008407972627082629
2020-07-29 13:05:29.985,0.067047119140625,-0.8255157470703125,0.113372802734375,-0.1813112050294876,-0.7391806244850159,0.22181548178195953,0.7097316588696053,0.7039464617808324,0.02640023854395978,0.0065966588928762
2020-07-29 13:05:29.995,0.040771484375,-0.84466552734375,0.11785888671875,-0.0386858768761158,-0.6370539665222168,0.17959639430046082,0.7099652848193545,0.7038265338191794,0.023514884690949207,0.004946642207961876
2020-07-29 13:05:30.005,0.036529541015625,-0.90087890625,0.106048583984375,0.08586191385984421,-0.4548601806163788,0.10614321380853653,0.7097431804611809,0.7041218274822673,0.021532786805638162,0.0036582368031888774
2020-07-29 13:05:30.015,0.0291748046875,-1.00445556640625,0.0805816650390625,0.13192901015281677,-0.24000699818134308,0.030555779114365578,0.7093439251692809,0.7045565855843918,0.02056529733755155,0.0028652853141204844
2020-07-29 13:05:30.025,-0.01190185546875,-1.1466522216796875,0.0390625,0.05967264994978905,0.0015417039394378662,0.004192614462226629,0.7093631781374304,0.7045388344494552,0.020505585528368342,0.0028798543586472077
2020-07-29 13:05:30.035,-0.0917205810546875,-1.2746124267578125,0.004180908203125,-0.03723525255918503,0.2680727243423462,0.055998820811510086,0.709445163304369,0.7044300757123861,0.021216761388413857,0.003947721576436012
2020-07-29 13:05:30.045,-0.1633758544921875,-1.2809295654296875,0.0323638916015625,-0.0038187066093087196,0.3926016092300415,0.13192474842071533,0.7094203381056058,0.7044161929988659,0.022097686166827016,0.00569261500386364
2020-07-29 13:05:30.055,-0.1809844970703125,-1.174285888671875,0.155548095703125,0.05662919208407402,0.30545684695243835,0.17954818904399872,0.7092112142422528,0.7045978849680035,0.02254080009834442,0.007291170054367609
2020-07-29 13:05:30.065,-0.1163482666015625,-1.05474853515625,0.2703399658203125,0.06390202045440674,0.07539621740579605,0.13332264125347137,0.7091831555749266,0.7046264344169065,0.022293334587536007,0.007988669045513583
2020-07-29 13:05:30.075,0.050811767578125,-0.9830780029296875,0.3175506591796875,0.04577521234750748,-0.19007833302021027,0.013428723439574242,0.7090872307679421,0.7047519404103386,0.02159700090015381,0.00732051910112258
2020-07-29 13:05:30.085,0.2547607421875,-1.033599853515625,0.288177490234375,-0.08442486822605133,-0.35842764377593994,-0.14202451705932617,0.7094288414887926,0.7044468917471334,0.02085160721411469,0.005527525156065826
2020-07-29 13:05:30.095,0.376434326171875,-1.2144775390625,0.227935791015625,-0.16705849766731262,-0.3701804578304291,-0.30016008019447327,0.7100458888674174,0.7038464095720551,0.020619049395636864,0.0031523308314645015
2020-07-29 13:05:30.105,0.3393707275390625,-1.3763885498046875,0.1451416015625,-0.13473650813102722,-0.21005390584468842,-0.4407651424407959,0.7107243454770276,0.7031441422917005,0.021411010403803464,0.0008555231162256554
2020-07-29 13:05:30.115,0.1952056884765625,-1.432830810546875,0.0317840576171875,-0.07277194410562515,0.0284058079123497,-0.5442321300506592,0.710969885647111,0.7028325422511483,0.02338994968336132,-0.0010486377575098151
2020-07-29 13:05:30.125,-0.0133209228515625,-1.42333984375,-0.0388031005859375,0.06251583993434906,0.16080859303474426,-0.611340343952179,0.7107618409565277,0.7029438257639302,0.026078761712178947,-0.0027514327704209057
2020-07-29 13:05:30.134,-0.137298583984375,-1.353485107421875,-0.1330718994140625,0.11313454061746597,0.16252872347831726,-0.6489814519882202,0.7103388371731907,0.7032506366093215,0.028918435798957053,-0.0045686573341684866
2020-07-29 13:05:30.145,-0.10858154296875,-1.2956390380859375,-0.178619384765625,0.19028392434120178,0.10036388784646988,-0.6694233417510986,0.709787986765233,0.7036760336759974,0.03157246094681941,-0.0066493543947189135
2020-07-29 13:05:30.155,-0.015380859375,-1.1900177001953125,-0.1957855224609375,0.3696211874485016,0.008703476749360561,-0.6399022340774536,0.7085019698988217,0.7048404112001072,0.03382123836627312,-0.009002296951599341
2020-07-29 13:05:30.165,0.15191650390625,-1.0500335693359375,-0.232147216796875,0.42634305357933044,-0.09890713542699814,-0.5653888583183289,0.7070421707310551,0.706186631524382,0.035496502401504496,-0.011482848428206443
2020-07-29 13:05:30.175,0.280029296875,-0.98687744140625,-0.260162353515625,0.2746496796607971,-0.08995385468006134,-0.5603607892990112,0.7060539423832599,0.7070466067564813,0.03715403055471627,-0.013871460177650653
2020-07-29 13:05:30.185,0.261688232421875,-1.03753662109375,-0.295562744140625,0.14379125833511353,-0.03387168049812317,-0.5558656454086304,0.7056813831346531,0.7072776788027048,0.03892005749596596,-0.016040533260685816
2020-07-29 13:05:30.195,0.1592559814453125,-1.13165283203125,-0.3337860107421875,0.1223062053322792,-0.08794929832220078,-0.4909052848815918,0.7052403129465865,0.7075875369422135,0.04032347868144741,-0.018163088739257156
2020-07-29 13:05:30.205,0.1047210693359375,-1.21649169921875,-0.315093994140625,0.10462441295385361,-0.15262655913829803,-0.3773163855075836,0.7048773977598297,0.7078505372460799,0.04112301423209488,-0.02010480090223778
2020-07-29 13:05:30.215,0.08673095703125,-1.28631591796875,-0.280059814453125,0.08912774175405502,-0.14577637612819672,-0.2532903254032135,0.7045677963564876,0.7080929671670048,0.04150798872725954,-0.021576030119840436
2020-07-29 13:05:30.225,0.0460357666015625,-1.2988128662109375,-0.25262451171875,0.11876419931650162,-0.07213038951158524,-0.13655917346477509,0.7043432930852093,0.7082804834293608,0.04169090201206694,-0.02238905164016857
2020-07-29 13:05:30.235,-0.0006256103515625,-1.2402191162109375,-0.228240966796875,0.17496569454669952,0.005603024736046791,-0.025301095098257065,0.7037382565052842,0.7088710726814123,0.0417775213212583,-0.022560343032631727
2020-07-29 13:05:30.245,-0.02886962890625,-1.1379852294921875,-0.2015380859375,0.2253606915473938,0.06828770786523819,0.06860329210758209,0.7029574636520045,0.7096587018270201,0.04174996673204751,-0.02218807573918582
2020-07-29 13:05:30.255,-0.057830810546875,-1.0434722900390625,-0.1692047119140625,0.23839925229549408,0.1251877397298813,0.1389397829771042,0.7021162720276699,0.7105203565009146,0.04167941923323145,-0.021361964004224257
2020-07-29 13:05:30.265,-0.08978271484375,-0.9960479736328125,-0.1365814208984375,0.22058936953544617,0.20059968531131744,0.18090559542179108,0.7015159399296496,0.7111497558068836,0.04168514207584791,-0.020097358199702476
2020-07-29 13:05:30.276,-0.1176605224609375,-0.982757568359375,-0.1265869140625,0.18323080241680145,0.27679696679115295,0.2127426266670227,0.7008378057651311,0.7118512505054556,0.04186923154073133,-0.01846656592316385
2020-07-29 13:05:30.285,-0.1207275390625,-0.9705963134765625,-0.126312255859375,0.16556419432163239,0.31731751561164856,0.25112515687942505,0.7002195791496275,0.7124948792431881,0.0420664155849079,-0.01655196947475302
2020-07-29 13:05:30.295,-0.1127777099609375,-0.9400634765625,-0.118865966796875,0.1542114019393921,0.33359554409980774,0.2796843647956848,0.6996418479796552,0.7130980958024769,0.04222703191926571,-0.01446526285585479
2020-07-29 13:05:30.305,-0.094696044921875,-0.8928680419921875,-0.109130859375,0.1246335431933403,0.3473028242588043,0.2856203019618988,0.6993608299489283,0.7134066543042087,0.042361246014459585,-0.012282775542910459
2020-07-29 13:05:30.315,-0.0669403076171875,-0.8453826904296875,-0.0986480712890625,0.08111775666475296,0.34602105617523193,0.2680961489677429,0.6990320310756001,0.7137471039235708,0.04261184591017284,-0.010183329318241001
2020-07-29 13:05:30.325,-0.0282135009765625,-0.8121795654296875,-0.09014892578125,0.027473969385027885,0.34444713592529297,0.24273595213890076,0.6988878204295551,0.7138939543255891,0.04294949332774802,-0.008162377213089374
2020-07-29 13:05:30.335,0.0123291015625,-0.7890472412109375,-0.0918426513671875,-0.030614901334047318,0.34464845061302185,0.22107139229774475,0.6989428050265779,0.7138344817798177,0.04337026562632926,-0.006198475453900217
2020-07-29 13:05:30.345,0.0357818603515625,-0.765106201171875,-0.0965728759765625,-0.07777096331119537,0.3507511019706726,0.20382343232631683,0.699394840331584,0.7133795992858688,0.04380310338957126,-0.004214049777738062
2020-07-29 13:05:30.355,0.03875732421875,-0.7467803955078125,-0.101104736328125,-0.11159071326255798,0.37074583768844604,0.1962302327156067,0.6997283165183644,0.7130240475264431,0.04440761992093944,-0.002236724202668027
2020-07-29 13:05:30.365,0.027069091796875,-0.733489990234375,-0.1021881103515625,-0.13456180691719055,0.4076857566833496,0.17721818387508392,0.7001355336745182,0.7125779058646163,0.045200083884632244,-0.00018746252242701246
2020-07-29 13:05:30.375,0.0021514892578125,-0.7296600341796875,-0.0934906005859375,-0.15575097501277924,0.44610902667045593,0.15734541416168213,0.7006058855162468,0.7120487238011406,0.046197578463293795,0.0019405693824334144
2020-07-29 13:05:30.386,-0.0293121337890625,-0.73388671875,-0.0858154296875,-0.17313502728939056,0.4815368056297302,0.13469256460666656,0.701360645561966,0.7112218395634361,0.04732218887242834,0.004167556180140162
2020-07-29 13:05:30.395,-0.0495147705078125,-0.74127197265625,-0.0773162841796875,-0.1963748335838318,0.5033760666847229,0.11169963330030441,0.7019501017790097,0.710531947255208,0.0486852997069023,0.0063380427889935505
2020-07-29 13:05:30.404,-0.0513763427734375,-0.7605438232421875,-0.067657470703125,-0.217052161693573,0.519736111164093,0.08043944835662842,0.7026067174958528,0.7097538324104841,0.050216565578772784,0.008466912590647602
2020-07-29 13:05:30.415,-0.04022216796875,-0.7831878662109375,-0.0650177001953125,-0.2274044007062912,0.5361790060997009,0.053533267229795456,0.7032913313790816,0.7089254266724978,0.051906033286440875,0.010568710139280218
2020-07-29 13:05:30.425,-0.0231170654296875,-0.80224609375,-0.06121826171875,-0.2240927517414093,0.5480226278305054,0.03116537630558014,0.7041886738250213,0.7078709154103892,0.053626788810327446,0.012693284486591114
2020-07-29 13:05:30.435,-0.0077056884765625,-0.8173370361328125,-0.0460968017578125,-0.21622523665428162,0.5492492914199829,0.02070661075413227,0.7048227320157588,0.7070586965580673,0.055465170829959436,0.014708781790266393
2020-07-29 13:05:30.445,0.0093994140625,-0.8338623046875,-0.0278778076171875,-0.2154981940984726,0.5233481526374817,0.01900857873260975,0.70546148354616,0.7062378057692126,0.057234233889073005,0.01663146525362127
2020-07-29 13:05:30.455,0.026336669921875,-0.854339599609375,-0.0133209228515625,-0.2310025840997696,0.4920237958431244,0.01697658747434616,0.7061475319025016,0.7053700033181128,0.05889415712616102,0.018441341717752194
2020-07-29 13:05:30.465,0.042572021484375,-0.8814849853515625,0.001007080078125,-0.24428537487983704,0.4589449465274811,0.016057530418038368,0.7071185211130739,0.7042247019878943,0.060353733584165785,0.020212203683582196
2020-07-29 13:05:30.475,0.0497283935546875,-0.9063873291015625,0.0153350830078125,-0.26562660932540894,0.42756038904190063,0.019172895699739456,0.7079369497753695,0.7032307125415588,0.061773184621729704,0.02181152140312946
2020-07-29 13:05:30.485,0.0425262451171875,-0.931243896484375,0.03350830078125,-0.27952033281326294,0.39595720171928406,0.013195164501667023,0.70880814647763,0.7021868141827728,0.0631074220084146,0.023284999744243046
2020-07-29 13:05:30.495,0.035308837890625,-0.95660400390625,0.058258056640625,-0.2732997238636017,0.3792157471179962,-0.005438441410660744,0.7096629610191337,0.7011554760452852,0.06444371053421845,0.02462614771818411
2020-07-29 13:05:30.505,0.01763916015625,-0.969879150390625,0.0872039794921875,-0.26616111397743225,0.37945783138275146,-0.03680168837308884,0.7107067146704761,0.6999229989159106,0.06581234424229902,0.025932567020559946
2020-07-29 13:05:30.515,-0.0074005126953125,-0.9470977783203125,0.1036224365234375,-0.25240108370780945,0.4038254916667938,-0.0695849359035492,0.7114750850495118,0.6989403985809806,0.06744985872967585,0.027129771173476275
2020-07-29 13:05:30.525,-0.0412750244140625,-0.8930206298828125,0.095458984375,-0.21450084447860718,0.43852168321609497,-0.09159063547849655,0.7121054602427564,0.6980695837130538,0.06928856975352234,0.02834954561567133
2020-07-29 13:05:30.535,-0.0694427490234375,-0.86297607421875,0.08935546875,-0.1691935509443283,0.45478561520576477,-0.1048332080245018,0.7125716466202011,0.6973456336607351,0.07124458482041537,0.02958053521061895
2020-07-29 13:05:30.545,-0.0850677490234375,-0.871826171875,0.0926971435546875,-0.11172067373991013,0.4753633439540863,-0.09325458109378815,0.7129981171174392,0.6966470472295495,0.0731895491901895,0.03098128743442497
2020-07-29 13:05:30.555,-0.0878143310546875,-0.8818511962890625,0.115997314453125,0.023321833461523056,0.5482194423675537,-0.07749958336353302,0.7127490511777855,0.6965947226612818,0.0753959973620592,0.03255867102375972
2020-07-29 13:05:30.565,-0.116058349609375,-0.8997650146484375,0.1406097412109375,0.15193893015384674,0.6046512722969055,-0.01661013625562191,0.7120449964943955,0.6969774952430388,0.07762084709800869,0.034487166976853355
2020-07-29 13:05:30.575,-0.1450653076171875,-0.9474334716796875,0.1406097412109375,0.14190679788589478,0.6161651611328125,0.03427887707948685,0.7113627246932673,0.6973313425757917,0.0797019348761607,0.036601866006591426
2020-07-29 13:05:30.585,-0.0923919677734375,-1.0510711669921875,0.083648681640625,-0.025318672880530357,0.47357261180877686,0.00959723349660635,0.7114720301098866,0.6969623105815042,0.08116003855088452,0.038264693791278954
2020-07-29 13:05:30.595,0.0709381103515625,-1.2205963134765625,-0.056915283203125,-0.25245940685272217,0.018724685534834862,0.0171494260430336,0.712289772838381,0.696114789149534,0.0811569347879902,0.03848335977919912
2020-07-29 13:05:30.605,0.184478759765625,-1.3128204345703125,-0.079437255859375,-0.21800076961517334,-0.27929022908210754,0.05386030301451683,0.7131118421366348,0.6954380524216941,0.08005220732347244,0.037801576294930646
2020-07-29 13:05:30.615,0.2881317138671875,-1.1835479736328125,0.095550537109375,0.03135925531387329,-0.181356742978096,0.013954431749880314,0.713114688872964,0.6955478761477861,0.07935657238587478,0.037191305884856946
2020-07-29 13:05:30.625,0.3437957763671875,-0.99700927734375,0.2158966064453125,0.19624567031860352,0.014547783881425858,0.04532407224178314,0.7126205015899899,0.6960637880898619,0.07918698007182647,0.0373720733702336
2020-07-29 13:05:30.635,0.186248779296875,-0.9541168212890625,0.2553253173828125,0.2567178010940552,0.20920409262180328,0.1700494885444641,0.7116365733610674,0.6969840437856586,0.07937050471644481,0.03855988582146029
2020-07-29 13:05:30.645,-0.0858154296875,-1.0737457275390625,0.2862091064453125,0.27986758947372437,0.3612426221370697,0.3460942804813385,0.7104706160986001,0.6980306926545498,0.0794705710222253,0.04085400219898258
2020-07-29 13:05:30.655,-0.26275634765625,-1.2691802978515625,0.2520751953125,0.29754725098609924,0.37583062052726746,0.531542181968689,0.7092145542501473,0.6991828388471371,0.07897396623875778,0.043830484713514764
2020-07-29 13:05:30.665,-0.3077239990234375,-1.390777587890625,0.085968017578125,0.24070581793785095,0.2038561850786209,0.6608852744102478,0.7082722571109084,0.7001300858091947,0.07732269164710856,0.046792959800148734
2020-07-29 13:05:30.675,-0.1492156982421875,-1.434234619140625,-0.0697784423828125,0.24664679169654846,-0.08248315751552582,0.7356295585632324,0.7072765066377412,0.7012845495754327,0.07456098649528127,0.04899599652787958
2020-07-29 13:05:30.685,0.13116455078125,-1.3953857421875,-0.1580657958984375,0.27447444200515747,-0.1985437124967575,0.7232517004013062,0.7062013172874514,0.7025679137979045,0.0714457732093802,0.05073067618404759
2020-07-29 13:05:30.695,0.2394561767578125,-1.2294158935546875,-0.211700439453125,0.32865750789642334,-0.15406440198421478,0.6462053656578064,0.7049723273895863,0.7039602341328896,0.06868816719878533,0.0523069484176833
2020-07-29 13:05:30.705,0.2246551513671875,-1.0850067138671875,-0.229217529296875,0.29969295859336853,-0.13030527532100677,0.5874938368797302,0.7039558431582864,0.7051005537716943,0.06616902354979903,0.05386038256750373
2020-07-29 13:05:30.715,0.1428070068359375,-0.9876556396484375,-0.301025390625,0.28085562586784363,-0.0741591826081276,0.5069401860237122,0.7028659234991996,0.7062683574933245,0.06412281145167628,0.05525352974132665
2020-07-29 13:05:30.725,0.0474395751953125,-0.9611968994140625,-0.391998291015625,0.26173174381256104,-0.10583508759737015,0.5604603886604309,0.7018395513747344,0.7073722866510355,0.061876972008197195,0.05671869868979127
2020-07-29 13:05:30.735,-0.013641357421875,-1.0185546875,-0.3996124267578125,0.21442468464374542,-0.07310882955789566,0.5682815313339233,0.7009489991072642,0.7083119937720019,0.05969740909021973,0.05831790901802858
2020-07-29 13:05:30.745,-0.000732421875,-1.107421875,-0.35986328125,0.1936964988708496,-0.006869357544928789,0.4657823443412781,0.7002927282864683,0.7089714686139977,0.05798677761366566,0.05989191493776731
2020-07-29 13:05:30.755,0.0763092041015625,-1.255035400390625,-0.3132171630859375,0.22293508052825928,0.0325627364218235,0.318742573261261,0.6993979941492383,0.7098386336840139,0.05700950923505796,0.0610041084872236
2020-07-29 13:05:30.765,0.1269073486328125,-1.3363189697265625,-0.2773895263671875,0.3045521676540375,0.025303492322564125,0.19953973591327667,0.698274454969582,0.7109302845361184,0.0564685277608686,0.061661531495894234
2020-07-29 13:05:30.775,0.1173858642578125,-1.3054046630859375,-0.258270263671875,0.35740581154823303,0.009198025800287724,0.12023159861564636,0.6969894859589071,0.7121878992334584,0.0561656690196303,0.061963779044243654
2020-07-29 13:05:30.785,0.102752685546875,-1.2473297119140625,-0.232696533203125,0.37090349197387695,-0.02973179705440998,0.07241640985012054,0.695838649089251,0.7133328106765578,0.05583208865685843,0.06203076869783351
2020-07-29 13:05:30.795,0.0958709716796875,-1.215606689453125,-0.1981201171875,0.36631113290786743,-0.09357522428035736,0.026570357382297516,0.6945619598863452,0.7146352805223861,0.055518159811038977,0.06162694277426799
2020-07-29 13:05:30.805,0.092193603515625,-1.195281982421875,-0.16912841796875,0.3629473149776459,-0.17428924143314362,-0.01870950497686863,0.6933341858280766,0.7159315601827456,0.05508656522868392,0.06078863072476173
2020-07-29 13:05:30.815,0.1030426025390625,-1.1542816162109375,-0.1463470458984375,0.36230334639549255,-0.24117639660835266,-0.05618710443377495,0.6921394177061103,0.7172282455327869,0.05456895039106463,0.05957341652266945
2020-07-29 13:05:30.825,0.1171875,-1.1008453369140625,-0.1274261474609375,0.35873445868492126,-0.28974711894989014,-0.10644255578517914,0.6911395753919704,0.7183575053890534,0.05398459226560979,0.05808713760772648
2020-07-29 13:05:30.835,0.13299560546875,-1.0675506591796875,-0.1048431396484375,0.3343771696090698,-0.3290362060070038,-0.14056643843650818,0.6900835051423027,0.7195559089419357,0.05344395126235801,0.05628257982817808
2020-07-29 13:05:30.846,0.1357269287109375,-1.0434722900390625,-0.081146240234375,0.3053114414215088,-0.34686288237571716,-0.14560647308826447,0.6891308453459988,0.7206572097128321,0.05284545741144878,0.05439873809562263
2020-07-29 13:05:30.855,0.114837646484375,-1.007720947265625,-0.0611724853515625,0.2829110622406006,-0.3459100127220154,-0.12032614648342133,0.6882550102212618,0.7216757975004029,0.05216424581181364,0.052610627253758716
2020-07-29 13:05:30.865,0.0805816650390625,-0.958404541015625,-0.04620361328125,0.26102015376091003,-0.3286982476711273,-0.09524236619472504,0.6875989956136833,0.72246954585364,0.05139599086756168,0.05102759573595772
2020-07-29 13:05:30.875,0.03948974609375,-0.909027099609375,-0.0369415283203125,0.23241592943668365,-0.3067684471607208,-0.0732441172003746,0.686875438920295,0.7233116466970478,0.05067004613884912,0.04954751858618749
2020-07-29 13:05:30.885,0.00103759765625,-0.86541748046875,-0.0328521728515625,0.19035130739212036,-0.2921208143234253,-0.06790341436862946,0.6862928700171831,0.7240079467254625,0.04996632286249189,0.048145375644290674
2020-07-29 13:05:30.895,-0.0233306884765625,-0.8304443359375,-0.031463623046875,0.1479865312576294,-0.27686062455177307,-0.07986367493867874,0.6858670168899407,0.7245445465869169,0.049337168618386176,0.04677116266914874
2020-07-29 13:05:30.905,-0.0272369384765625,-0.8017578125,-0.032501220703125,0.09402795881032944,-0.2671049237251282,-0.0990552082657814,0.6858094744327149,0.7247240781718811,0.048740153110480355,0.045440510225386345
2020-07-29 13:05:30.915,-0.023712158203125,-0.7829132080078125,-0.0326690673828125,0.03717906028032303,-0.2626763582229614,-0.11608292907476425,0.6857818857066056,0.7248698410595449,0.04825625924199468,0.044025897272668896
2020-07-29 13:05:30.925,-0.009918212890625,-0.774139404296875,-0.0337677001953125,-0.019844278693199158,-0.2615698277950287,-0.12977184355258942,0.6859597058342471,0.7248172726038751,0.04781853246140057,0.04257431729596628
2020-07-29 13:05:30.935,0.018096923828125,-0.7647552490234375,-0.0343170166015625,-0.06866054981946945,-0.2591226398944855,-0.14380350708961487,0.6863102114489313,0.7245954049578635,0.04743380426371149,0.041107545867555745
2020-07-29 13:05:30.945,0.0514678955078125,-0.753875732421875,-0.02801513671875,-0.09740617871284485,-0.24922794103622437,-0.14124713838100433,0.6869661687140944,0.7240780320310728,0.047009657746898185,0.03973216171318733
2020-07-29 13:05:30.955,0.0793914794921875,-0.7493896484375,-0.0164031982421875,-0.1192275881767273,-0.2528138756752014,-0.1274956464767456,0.6875012898773905,0.7236722303997029,0.04657973314001557,0.0383511359662427
2020-07-29 13:05:30.965,0.09136962890625,-0.75347900390625,0.00244140625,-0.14472416043281555,-0.25455984473228455,-0.10562922060489655,0.688128924279745,0.7231773961123877,0.046059971970112426,0.03703522733382965
2020-07-29 13:05:30.975,0.0982818603515625,-0.7682647705078125,0.018096923828125,-0.18773314356803894,-0.2628129720687866,-0.0932907983660698,0.6889035108241232,0.7225426206653185,0.045458202100075604,0.035745799711003834
2020-07-29 13:05:30.985,0.0953521728515625,-0.7957305908203125,0.0308074951171875,-0.2416435182094574,-0.27439162135124207,-0.09410279989242554,0.6900719267299912,0.7215319016326074,0.04476954973567702,0.03446992641487493
2020-07-29 13:05:30.995,0.081634521484375,-0.830169677734375,0.0388946533203125,-0.29445958137512207,-0.28153395652770996,-0.09195335954427719,0.6912328627234668,0.7205246972062002,0.04408116454765068,0.03313931960055282
2020-07-29 13:05:31.005,0.0723114013671875,-0.850830078125,0.0490570068359375,-0.3427850604057312,-0.2949477434158325,-0.0930095687508583,0.6925663203123158,0.7193495355728348,0.04334002811808932,0.03177712444853508
2020-07-29 13:05:31.015,0.060546875,-0.8507843017578125,0.0541534423828125,-0.3864837884902954,-0.3051774799823761,-0.0834946259856224,0.6940584365695219,0.7180184624082675,0.04251636861673102,0.030409378098528082
2020-07-29 13:05:31.025,0.052001953125,-0.83233642578125,0.055755615234375,-0.42511534690856934,-0.33303308486938477,-0.06833591312170029,0.6958680360126893,0.7163806631393914,0.04150937562895179,0.029039400923068035
2020-07-29 13:05:31.035,0.062835693359375,-0.8054351806640625,0.06170654296875,-0.4388316869735718,-0.3852542042732239,-0.05158303305506706,0.6975411348857772,0.7148818574631672,0.04028491238479341,0.027523870863139125
2020-07-29 13:05:31.045,0.0906219482421875,-0.77777099609375,0.0662689208984375,-0.43797600269317627,-0.45661255717277527,-0.0190754234790802,0.6992118888382877,0.7133979870751337,0.038699321563885836,0.025850524241726156
2020-07-29 13:05:31.055,0.1136322021484375,-0.7584686279296875,0.0705718994140625,-0.4201221764087677,-0.5447258949279785,0.011834555305540562,0.700828465955811,0.7119833436524592,0.03667367549285543,0.023965197921321357
2020-07-29 13:05:31.065,0.1270751953125,-0.765960693359375,0.079010009765625,-0.3902399241924286,-0.647130012512207,0.06460615992546082,0.7025172861057977,0.710510593674911,0.03410764830157645,0.021926889866905344
2020-07-29 13:05:31.075,0.1131744384765625,-0.80877685546875,0.09698486328125,-0.3431831896305084,-0.7103220224380493,0.12686234712600708,0.7038580444563967,0.7093793735306052,0.031150156344392572,0.019861718482667618
2020-07-29 13:05:31.085,0.082916259765625,-0.8655242919921875,0.112640380859375,-0.3061141073703766,-0.6730788350105286,0.15381112694740295,0.7050343634532266,0.7083827372209563,0.028215495761991435,0.01800596624693462
2020-07-29 13:05:31.095,0.069549560546875,-0.90740966796875,0.115020751953125,-0.26027631759643555,-0.5705588459968567,0.13703374564647675,0.7060404326342606,0.7075141271189802,0.02569722348026942,0.0164432779801251
2020-07-29 13:05:31.105,0.0814056396484375,-0.93951416015625,0.07861328125,-0.23062096536159515,-0.42319732904434204,0.08496442437171936,0.7070743129061591,0.7065722651933332,0.02386326201985776,0.015233401635277226
2020-07-29 13:05:31.115,0.0800933837890625,-0.994354248046875,0.0314178466796875,-0.19160538911819458,-0.2721175253391266,0.04296637699007988,0.7078071819695178,0.7058936295775873,0.02271377678015053,0.014394833579789695
2020-07-29 13:05:31.125,0.0301666259765625,-1.0909576416015625,-0.0186767578125,-0.19957701861858368,-0.13744574785232544,0.04423537105321884,0.7085631084340575,0.705161343752812,0.022082119335154887,0.014074842810249876
2020-07-29 13:05:31.135,-0.059173583984375,-1.2174530029296875,-0.0625457763671875,-0.3007292151451111,0.11034967750310898,0.07417702674865723,0.7095975406068574,0.7041039759000811,0.02219210124266679,0.014713737801760725
2020-07-29 13:05:31.145,-0.1428680419921875,-1.277801513671875,-0.048797607421875,-0.3058065176010132,0.3750428557395935,0.10815603286027908,0.7107589908747503,0.7028675847757156,0.023055546007635774,0.01635126812351184
2020-07-29 13:05:31.155,-0.189056396484375,-1.204803466796875,0.0496368408203125,-0.14249029755592346,0.4186286926269531,0.1258077323436737,0.7112321849477568,0.702310545952422,0.024055541542561117,0.018168307952718316
2020-07-29 13:05:31.165,-0.1596832275390625,-1.0869140625,0.1677703857421875,-0.010112554766237736,0.2301700860261917,0.07864633947610855,0.7112644346906225,0.7022330140912268,0.024592708200715685,0.01915161373814616
2020-07-29 13:05:31.175,-0.008056640625,-1.03399658203125,0.2644195556640625,0.055268313735723495,-0.08923213928937912,-0.0674554705619812,0.7111039085062991,0.7024144603048053,0.02452669363525993,0.018532973171908725
2020-07-29 13:05:31.185,0.1839752197265625,-1.04388427734375,0.35955810546875,0.10487128794193268,-0.3990829288959503,-0.24586142599582672,0.7109805646234547,0.7026153866739404,0.023973883783471556,0.016232748919875296
2020-07-29 13:05:31.195,0.3632965087890625,-1.10565185546875,0.385162353515625,0.039385221898555756,-0.5809352993965149,-0.3962163031101227,0.7109766445013074,0.702713647880292,0.023299964544846133,0.012762883653550963
2020-07-29 13:05:31.204,0.485198974609375,-1.2399444580078125,0.3058319091796875,-0.12614302337169647,-0.59690922498703,-0.4537975788116455,0.7114711562370559,0.7022880874448976,0.02277158123613427,0.009037861850925222
2020-07-29 13:05:31.215,0.4335784912109375,-1.3406829833984375,0.2554473876953125,-0.07814353704452515,-0.4838811755180359,-0.4664952754974365,0.7118212085398476,0.7019711480507621,0.0227000512639862,0.0056374062185783145
2020-07-29 13:05:31.225,0.249053955078125,-1.269195556640625,0.1497650146484375,0.04320792481303215,-0.32800769805908203,-0.5024213194847107,0.7118942143454424,0.7018959330193941,0.02328189134972818,0.002600625156218474
2020-07-29 13:05:31.235,0.0643157958984375,-1.2096405029296875,0.006805419921875,0.013668940402567387,-0.2309860736131668,-0.5045747756958008,0.7119007936370592,0.7018614785876566,0.02424387095832941,-6.154489948066288e-05
2020-07-29 13:05:31.245,-0.0933837890625,-1.3103179931640625,-0.080291748046875,-0.060499031096696854,-0.1111598089337349,-0.5159051418304443,0.7121252102274555,0.7015790123693786,0.02567075953306741,-0.002341790142974875
2020-07-29 13:05:31.255,-0.1904754638671875,-1.4228363037109375,-0.1836700439453125,-0.061893194913864136,0.012562396936118603,-0.5426598191261292,0.7123115190640597,0.7013070217892156,0.027609522003532005,-0.004306398461465878
2020-07-29 13:05:31.265,-0.1894989013671875,-1.4231414794921875,-0.2563934326171875,0.09830819070339203,0.04896674305200577,-0.5892177224159241,0.7120853875156214,0.7014306180184224,0.029820614898383172,-0.006333882328146634
2020-07-29 13:05:31.275,-0.1035003662109375,-1.245513916015625,-0.2982025146484375,0.2650662958621979,-0.024039821699261665,-0.5772063136100769,0.7111920920497102,0.7022277961929678,0.03175883481161369,-0.008566982348733715
2020-07-29 13:05:31.285,0.041015625,-1.0382537841796875,-0.3170623779296875,0.26487401127815247,-0.09239624440670013,-0.5621264576911926,0.7102677744066594,0.7030521918709172,0.03341567699590869,-0.010986252972471237
2020-07-29 13:05:31.295,0.148773193359375,-0.952728271484375,-0.315399169921875,0.2181059718132019,-0.10379564017057419,-0.5858557820320129,0.7094783757922097,0.7037239568156879,0.03506984554326828,-0.0135329578237822
2020-07-29 13:05:31.305,0.157684326171875,-0.977691650390625,-0.31500244140625,0.23618590831756592,-0.16128502786159515,-0.5653930902481079,0.7088060292780063,0.7042729526032587,0.03647377946543033,-0.01622351008139668
2020-07-29 13:05:31.315,0.13714599609375,-1.0495758056640625,-0.2919464111328125,0.22785979509353638,-0.23089073598384857,-0.4763053059577942,0.7080243801862028,0.7049499602614444,0.03733409382064441,-0.018792153792913262
2020-07-29 13:05:31.325,0.1514129638671875,-1.1397857666015625,-0.260406494140625,0.19152867794036865,-0.19893839955329895,-0.3617249131202698,0.7073489117959783,0.7055393842988218,0.037912875505704664,-0.020838802903323465
2020-07-29 13:05:31.335,0.1518402099609375,-1.2080230712890625,-0.239532470703125,0.19346719980239868,-0.0517505444586277,-0.24155190587043762,0.7066593282002068,0.7061611753761162,0.03855715404537429,-0.021961536082367603
2020-07-29 13:05:31.345,0.0852508544921875,-1.2172088623046875,-0.214111328125,0.21314875781536102,0.10978535562753677,-0.10862794518470764,0.706047184470182,0.7067266798531567,0.03932748724951261,-0.022094690838001432
2020-07-29 13:05:31.355,-0.0149383544921875,-1.18023681640625,-0.1919097900390625,0.20420479774475098,0.24758823215961456,0.007458715233951807,0.7052961049550055,0.7074542785396136,0.04014591916426964,-0.021310691672030257
2020-07-29 13:05:31.365,-0.10406494140625,-1.1421356201171875,-0.176483154296875,0.1706676185131073,0.33944171667099,0.0808170884847641,0.7046396133689371,0.7080965245898942,0.041051285781363134,-0.019928282056276718
2020-07-29 13:05:31.375,-0.1684417724609375,-1.113189697265625,-0.1577301025390625,0.1542111337184906,0.4158102571964264,0.09977532923221588,0.7040304942371323,0.7086844890524798,0.04214363769010727,-0.018201616070615698
2020-07-29 13:05:31.386,-0.193267822265625,-1.0606536865234375,-0.1414337158203125,0.14663471281528473,0.45317867398262024,0.09890633821487427,0.7035880990659915,0.7090945181117141,0.04336830985206488,-0.01636617311386353
2020-07-29 13:05:31.395,-0.1672210693359375,-0.9896392822265625,-0.1378631591796875,0.13048796355724335,0.4410642087459564,0.09578218311071396,0.7030523463802167,0.7095912317251964,0.044569107160101845,-0.014536363022844768
2020-07-29 13:05:31.405,-0.096893310546875,-0.9367828369140625,-0.125823974609375,0.10063100606203079,0.42995670437812805,0.11148364841938019,0.7026215532463974,0.7099829756816689,0.04567547447665161,-0.01268374970563936
2020-07-29 13:05:31.415,-0.033203125,-0.9056243896484375,-0.117095947265625,0.06958626955747604,0.4372558891773224,0.1444525122642517,0.7022943621777357,0.7102732150951014,0.04669372865582653,-0.010693402180928253
2020-07-29 13:05:31.425,0.00286865234375,-0.8755950927734375,-0.1137542724609375,0.051482897251844406,0.4471210539340973,0.17064976692199707,0.7021875632655731,0.7103437419408251,0.04765399868506694,-0.008575136106325883
2020-07-29 13:05:31.436,0.0294036865234375,-0.843170166015625,-0.106597900390625,0.034937478601932526,0.4687456488609314,0.18566466867923737,0.7019729885352637,0.7105119169121927,0.04864917747104414,-0.00631757648495717
2020-07-29 13:05:31.445,0.0467071533203125,-0.811614990234375,-0.0992279052734375,0.010295514017343521,0.49287867546081543,0.18241561949253082,0.7018355775765048,0.7105897421651591,0.04973008399636896,-0.003983877958374702
2020-07-29 13:05:31.455,0.04901123046875,-0.7858734130859375,-0.0977783203125,-0.01642451249063015,0.5087535381317139,0.17042233049869537,0.7017849038352957,0.7105652813999357,0.050913120470652405,-0.0016294904476272234
2020-07-29 13:05:31.465,0.0359649658203125,-0.76751708984375,-0.09613037109375,-0.04237222298979759,0.5197755098342896,0.14880625903606415,0.702002422597874,0.7102590955342668,0.05219382368207645,0.0007003184238783978
2020-07-29 13:05:31.475,0.018096923828125,-0.7584381103515625,-0.0919342041015625,-0.07051651179790497,0.5278811454772949,0.12902295589447021,0.7021301653193216,0.7100231765812832,0.05358495677245182,0.0029947297170307644
2020-07-29 13:05:31.486,-0.0036773681640625,-0.763671875,-0.0863189697265625,-0.10403186082839966,0.5302947759628296,0.10609661042690277,0.702373845966375,0.7096566057058216,0.05505552349662058,0.0052231970410666845
2020-07-29 13:05:31.495,-0.02484130859375,-0.7747802734375,-0.0808868408203125,-0.15023957192897797,0.5302827954292297,0.09105933457612991,0.7027682641445282,0.7091257742487773,0.05658979216037531,0.00741616878387606
2020-07-29 13:05:31.505,-0.0316009521484375,-0.789215087890625,-0.0814361572265625,-0.18322227895259857,0.5337555408477783,0.077556312084198,0.7034589476279365,0.7082871924464647,0.05816064509808174,0.009592083061831307
2020-07-29 13:05:31.515,-0.02569580078125,-0.79620361328125,-0.0831756591796875,-0.20291902124881744,0.5375769138336182,0.06810182332992554,0.7040362942481063,0.7075438597271154,0.0598046434429681,0.011749152288423374
2020-07-29 13:05:31.525,-0.01239013671875,-0.807373046875,-0.0800018310546875,-0.2276129126548767,0.5490615367889404,0.060205817222595215,0.7046883924169753,0.7067084163539596,0.06150917876468901,0.013927489308953472
2020-07-29 13:05:31.535,-0.0024566650390625,-0.820159912109375,-0.0735931396484375,-0.2573372721672058,0.5748153328895569,0.061095044016838074,0.7054268951110994,0.7057650803726851,0.0632944217415857,0.016196326401690553
2020-07-29 13:05:31.545,0.005401611328125,-0.8268280029296875,-0.0688934326171875,-0.27328479290008545,0.589970588684082,0.0634082704782486,0.7063927610893291,0.7045766134828061,0.06509042259907072,0.018549713772665906
2020-07-29 13:05:31.555,0.0152587890625,-0.8331298828125,-0.0597991943359375,-0.277873694896698,0.5826922059059143,0.07316449284553528,0.7071876782691691,0.703545562361048,0.06687250784395156,0.02091001682158894
2020-07-29 13:05:31.565,0.02691650390625,-0.84490966796875,-0.044219970703125,-0.27099609375,0.576673686504364,0.0800575539469719,0.7079533963983057,0.70253441525239,0.06860415361112855,0.02325474532800446
2020-07-29 13:05:31.575,0.0356903076171875,-0.8580780029296875,-0.017730712890625,-0.25195208191871643,0.5581439733505249,0.07159242779016495,0.7086636360209659,0.7015725999211813,0.07029483594580094,0.025502888435502788
2020-07-29 13:05:31.585,0.042083740234375,-0.8701629638671875,0.0046234130859375,-0.24810141324996948,0.5262584686279297,0.060389574617147446,0.7095351588443054,0.7004498195017491,0.07187954707830388,0.02762867839568291
2020-07-29 13:05:31.595,0.045257568359375,-0.890289306640625,0.028289794921875,-0.25299152731895447,0.4996281862258911,0.055160459131002426,0.7102495996712257,0.6994840283642259,0.0734223277069712,0.02961101027681555
2020-07-29 13:05:31.605,0.0418701171875,-0.9206695556640625,0.048736572265625,-0.26275280117988586,0.46918854117393494,0.03970453515648842,0.71100275999497,0.6984794468525164,0.0749197358197799,0.031443368235241756
2020-07-29 13:05:31.615,0.0360260009765625,-0.9423370361328125,0.0704803466796875,-0.2534828782081604,0.45001882314682007,0.010669688694179058,0.7117309710525754,0.6974952649017212,0.07644456594536647,0.03309769313189103
2020-07-29 13:05:31.625,0.0292816162109375,-0.9442901611328125,0.09112548828125,-0.2331261932849884,0.4403217136859894,-0.022846193984150887,0.7125630299354118,0.6963964868056355,0.07802433233421394,0.03461198544499814
2020-07-29 13:05:31.635,0.0247039794921875,-0.918853759765625,0.1120147705078125,-0.2255159467458725,0.4409688711166382,-0.05661667510867119,0.7132048871561908,0.6954733397883033,0.07975344940999697,0.035987462542056814
2020-07-29 13:05:31.645,0.0203094482421875,-0.8749542236328125,0.1158447265625,-0.2261524349451065,0.4517360329627991,-0.0743061900138855,0.7138392078669036,0.6945363338896329,0.08159554180010799,0.03735155457918204
2020-07-29 13:05:31.655,-0.003570556640625,-0.8317718505859375,0.1049957275390625,-0.2209925651550293,0.4943942725658417,-0.07723353803157806,0.7144312499452816,0.6936102825580399,0.08357766529797599,0.03882707994100525
2020-07-29 13:05:31.665,-0.0273590087890625,-0.8147735595703125,0.09246826171875,-0.19740813970565796,0.5339012145996094,-0.0696358010172844,0.7150599887619867,0.6926149505622009,0.0856421050559671,0.04048731727191174
2020-07-29 13:05:31.675,-0.0392608642578125,-0.8216705322265625,0.09234619140625,-0.11342988908290863,0.5749732851982117,-0.033431194722652435,0.7152240741727715,0.6920676073401849,0.08776663491628692,0.042353971019486236
2020-07-29 13:05:31.685,-0.077301025390625,-0.84417724609375,0.0877685546875,-0.0028671592008322477,0.5741863250732422,0.04663168266415596,0.7150133372798873,0.6919136845202823,0.08964141275737184,0.044448422349643926
2020-07-29 13:05:31.695,-0.1181793212890625,-0.9096527099609375,0.0510101318359375,0.0064834654331207275,0.5012785792350769,0.12545379996299744,0.7147964214928052,0.6918244573452684,0.09098885093584456,0.04654040536431927
2020-07-29 13:05:31.705,-0.0521240234375,-1.0438690185546875,-0.00335693359375,-0.1495751142501831,0.2995329201221466,0.13157613575458527,0.7153155223454013,0.69112088158686,0.0914744475370449,0.0480429617555684
2020-07-29 13:05:31.715,0.098052978515625,-1.2222900390625,-0.0976104736328125,-0.35789236426353455,-0.09751962870359421,0.1119086891412735,0.7165187362370026,0.6899602698591354,0.09070344808311571,0.04825494619501613
2020-07-29 13:05:31.725,0.177703857421875,-1.2915496826171875,-0.069305419921875,-0.31043508648872375,-0.3021867573261261,0.07873502373695374,0.7176814659585146,0.6889699939114424,0.08935929370757045,0.04763041147660009
2020-07-29 13:05:31.735,0.2642822265625,-1.15771484375,0.099212646484375,-0.08729761838912964,-0.18507105112075806,0.008372711949050426,0.7180975261360993,0.6886717739635714,0.0886170834363317,0.04705409601217774
2020-07-29 13:05:31.745,0.2940521240234375,-1.0036468505859375,0.205780029296875,0.06557155400514603,-0.002712962217628956,0.06971649825572968,0.7180119487405648,0.6887859090587404,0.08831977536467983,0.047248652369750385
2020-07-29 13:05:31.755,0.1363372802734375,-0.9860076904296875,0.2410125732421875,0.16774478554725647,0.1487623155117035,0.22244611382484436,0.7173343500194419,0.6894349349622385,0.0881195315630033,0.04843511881748798
2020-07-29 13:05:31.765,-0.107391357421875,-1.0890960693359375,0.295135498046875,0.25474122166633606,0.27513861656188965,0.39484983682632446,0.7162764056400577,0.6904222889402905,0.0877734712003266,0.05060468041909183
2020-07-29 13:05:31.775,-0.27996826171875,-1.269683837890625,0.3021240234375,0.26491183042526245,0.2708573341369629,0.5450468063354492,0.7151425818285737,0.6915054513857302,0.08690758284110936,0.053277003065142825
2020-07-29 13:05:31.785,-0.31732177734375,-1.3761444091796875,0.1659393310546875,0.18346171081066132,0.10725375264883041,0.6020299196243286,0.7144171198111756,0.6922831042682903,0.08516320107122857,0.05567285434593255
2020-07-29 13:05:31.795,-0.1561737060546875,-1.416229248046875,-0.013214111328125,0.10593468695878983,-0.2039342224597931,0.6463116407394409,0.7139702769462559,0.6929709410282185,0.08224440743080515,0.05721406884901438
2020-07-29 13:05:31.805,0.1313323974609375,-1.4451751708984375,-0.0963287353515625,0.049612559378147125,-0.37437865138053894,0.6900428533554077,0.7137242952144088,0.6935485118258748,0.07863995063900972,0.058341595015620765
2020-07-29 13:05:31.815,0.290008544921875,-1.3274078369140625,-0.1849212646484375,0.11019175499677658,-0.26857447624206543,0.6054528951644897,0.7133176605766678,0.6942174864668625,0.07554223490890523,0.059441568771182035
2020-07-29 13:05:31.825,0.2749786376953125,-1.1676025390625,-0.2996826171875,0.09117491543292999,-0.2836170792579651,0.537743866443634,0.7130473024280386,0.6947314793793462,0.07259807206642466,0.06034289691508741
2020-07-29 13:05:31.835,0.181549072265625,-1.1335296630859375,-0.38519287109375,0.10909346491098404,-0.35979652404785156,0.5362754464149475,0.7126285657273296,0.6954244521295656,0.06950321258298196,0.06094765285451647
2020-07-29 13:05:31.845,0.1260986328125,-1.1081695556640625,-0.4083709716796875,0.21233808994293213,-0.325473427772522,0.5626748204231262,0.7118362402287102,0.6964609757786612,0.06651302023563652,0.06170228822120016
2020-07-29 13:05:31.855,0.0603790283203125,-1.0171661376953125,-0.3921661376953125,0.3183497488498688,-0.1610029935836792,0.5102429986000061,0.7106657896900562,0.6977746524123406,0.06421719166505505,0.0627751322723054
2020-07-29 13:05:31.865,-0.0153350830078125,-1.0047607421875,-0.3443603515625,0.29930922389030457,-0.06528286635875702,0.43408113718032837,0.709643237064591,0.6988605512407622,0.062492222598049804,0.06399200373717986
2020-07-29 13:05:31.875,-0.0357513427734375,-1.1433563232421875,-0.28143310546875,0.24533146619796753,0.0070619042962789536,0.33354467153549194,0.7086705670675715,0.6998462099658678,0.06139890832257772,0.06504957471960039
2020-07-29 13:05:31.885,0.006561279296875,-1.2722625732421875,-0.2457733154296875,0.2756773829460144,-0.0028871328104287386,0.24282357096672058,0.7076452249098534,0.7008868819346223,0.060597487016544785,0.06575495738455088
2020-07-29 13:05:31.895,0.0391387939453125,-1.295806884765625,-0.22967529296875,0.30523768067359924,-0.06747491657733917,0.1830531805753708,0.7065588220559559,0.7020239724191213,0.05981369707989763,0.06602604948554598
2020-07-29 13:05:31.905,0.0812225341796875,-1.2648773193359375,-0.2218170166015625,0.2916204035282135,-0.12460584193468094,0.12485325336456299,0.7056583875862998,0.703007204445431,0.058966009296955266,0.06595522443686394
