Timestamp,AccelX,AccelY,AccelZ,GyroX,GyroY,GyroZ,QuatW,QuatX,QuatY,QuatZ
2021-01-14 15:00:39.375,0.01172706028636621,-0.933034274042869,-0.36036279736732946,0.0,0.0,0.0,0.710195004940033,0.4823929965496063,0.29463401436805725,0.4196529984474182
2021-01-14 15:00:39.385,0.01172706028636621,-0.933034274042869,-0.36036279736732946,0.0,0.0,0.0,0.7102400064468384,0.48238199949264526,0.29457199573516846,0.4196319878101349
2021-01-14 15:00:39.395,0.01172706028636621,-0.933034274042869,-0.36036279736732946,-0.01155390590429306,-0.0018796323565766215,0.0013048081891611218,0.7102879881858826,0.48237499594688416,0.2945060133934021,0.419607013463974
2021-01-14 15:00:39.405,0.0017101963867946547,-0.940363650419274,-0.3554765059023487,-0.01155390590429306,-0.0031013628467917442,-5.277875461615622E-4,0.7103400230407715,0.482369989156723,0.29443299770355225,0.4195759892463684
2021-01-14 15:00:39.415,-0.002443137559659627,-0.9349887225092673,-0.3647604280588578,-0.012775635346770287,-0.004323093220591545,6.939428858458996E-4,0.7103970050811768,0.4823639988899231,0.29436200857162476,0.4195370078086853
2021-01-14 15:00:39.425,0.0014658825357957762,-0.9313240829779177,-0.3523004298307458,-0.01155390590429306,-0.006155689246952534,0.0013048081891611218,0.7104499936103821,0.48236900568008423,0.2942740023136139,0.41950199007987976
2021-01-14 15:00:39.435,-0.0034203927735893093,-0.9303467614310128,-0.3652490645038838,-0.009110444225370884,-0.009210015647113323,6.939428858458996E-4,0.7105010151863098,0.4823879897594452,0.29416900873184204,0.4194670021533966
2021-01-14 15:00:39.445,-0.004397647417321497,-0.9276593461328623,-0.3828396602552764,-0.007888713851571083,-0.01043174508959055,0.0019156733760610223,0.7105439901351929,0.48242899775505066,0.29405999183654785,0.41942501068115234
2021-01-14 15:00:39.455,-0.003909020095455403,-0.9266821218996631,-0.3730671016537413,-0.0060561178252100945,-0.007988284341990948,6.939428858458996E-4,0.7105839848518372,0.4824810028076172,0.2939319908618927,0.41938599944114685
2021-01-14 15:00:39.465,-0.004641961458386207,-0.9261934124693578,-0.3716012166470897,-0.004834387917071581,-0.0049339584074914455,0.0019156733760610223,0.7106299996376038,0.4825190007686615,0.29379698634147644,0.4193589985370636
2021-01-14 15:00:39.475,-0.006596471125982245,-0.9271707340162627,-0.3716012166470897,-0.005445253103971481,-0.0018796323565766215,0.0037482690531760454,0.7106710076332092,0.48255500197410583,0.29365599155426025,0.41934698820114136
2021-01-14 15:00:39.485,-0.006352157465049199,-0.9283923129646144,-0.3698910255821383,-0.002390926703810692,-0.001268767169676721,0.003137403866276145,0.7107120156288147,0.48258599638938904,0.29350200295448303,0.4193490147590637
2021-01-14 15:00:39.495,-0.007818040190910806,-0.9271707340162627,-0.3674478920138612,-0.0030017916578799486,-0.0018796323565766215,0.0037482690531760454,0.7107489705085754,0.4826279878616333,0.29335901141166687,0.41933900117874146
2021-01-14 15:00:39.505,-0.006840785547178619,-0.9303467614310128,-0.3618286823739811,-0.0030017916578799486,-0.0031013628467917442,0.00496999965980649,0.7107880115509033,0.4826720058917999,0.2932029962539673,0.41933101415634155
2021-01-14 15:00:39.515,-0.007818040190910806,-0.9323013072111168,-0.36842514057548675,-0.002390926703810692,-0.001268767169676721,0.003137403866276145,0.7108290195465088,0.4827229976654053,0.29303398728370667,0.4193210005760193
2021-01-14 15:00:39.525,-0.005619216482250057,-0.9305911161461654,-0.3632945430522062,-0.0030017916578799486,0.0017855591140687466,0.003137403866276145,0.7108680009841919,0.4827840030193329,0.2928610146045685,0.4193060100078583
2021-01-14 15:00:39.535,-0.003909020095455403,-0.9318126950945173,-0.3723341591504155,-0.002390926703810692,0.004839885048568249,0.0025265386793762445,0.7109079957008362,0.48284900188446045,0.2926790118217468,0.4192889928817749
2021-01-14 15:00:39.545,-0.0051305887802523,-0.9318126950945173,-0.35865258197395167,-5.58330852072686E-4,0.006061615888029337,0.0019156733760610223,0.7109460234642029,0.48291999101638794,0.29249799251556396,0.41926801204681396
2021-01-14 15:00:39.555,-0.005619216482250057,-0.9354773346258669,-0.3742886806020931,6.633996381424367E-4,0.006672481074929237,0.0019156733760610223,0.7109919786453247,0.48298799991607666,0.29231300950050354,0.4192430078983307
2021-01-14 15:00:39.565,-0.0051305887802523,-0.933034274042869,-0.3674478920138612,-0.0011691960971802473,0.007283346261829138,0.003137403866276145,0.711031973361969,0.4830639958381653,0.29213398694992065,0.4192110002040863
2021-01-14 15:00:39.575,-0.007085099208111665,-0.9313240829779177,-0.36866944663378654,-5.58330852072686E-4,0.006672481074929237,0.0037482690531760454,0.7110779881477356,0.48313599824905396,0.291949987411499,0.4191789925098419
2021-01-14 15:00:39.585,-0.005619216482250057,-0.9286365703660614,-0.3637831794972322,-0.0011691960971802473,0.006061615888029337,0.0037482690531760454,0.7111729979515076,0.48328301310539246,0.2915779948234558,0.41910600662231445
2021-01-14 15:00:39.595,-0.008550981173709947,-0.9276593461328623,-0.3728227955954415,-0.0011691960971802473,0.006061615888029337,0.0037482690531760454,0.7111729979515076,0.48328301310539246,0.2915779948234558,0.41910600662231445
2021-01-14 15:00:39.605,-0.009772550238638508,-0.9232616424560546,-0.3733114077120411,-0.002390926703810692,0.009726807475090027,0.00558086484670639,0.7112209796905518,0.4833599925041199,0.2913930118083954,0.41906601190567017
2021-01-14 15:00:39.615,-0.007573726529977759,-0.9244832214044064,-0.3672035859555614,-0.002390926703810692,0.013391999527812004,0.00558086484670639,0.7113320231437683,0.48350200057029724,0.2909899950027466,0.4189920127391815
2021-01-14 15:00:39.625,-0.007573726529977759,-0.9261934124693578,-0.3764875081120705,-0.002390926703810692,0.013391999527812004,0.00558086484670639,0.7113320231437683,0.48350200057029724,0.2909899950027466,0.4189920127391815
2021-01-14 15:00:39.635,-0.004397647417321497,-0.9254605429513113,-0.37062396808546416,0.002495995257049799,0.015224593691527843,0.00558086484670639,0.7114629745483398,0.4836370050907135,0.2905629873275757,0.41891101002693176
2021-01-14 15:00:39.645,-0.004641961458386207,-0.9259491550679109,-0.3755102352220185,0.002495995257049799,0.015224593691527843,0.00558086484670639,0.7114629745483398,0.4836370050907135,0.2905629873275757,0.41891101002693176
2021-01-14 15:00:39.655,-9.772550238638508E-4,-0.9283923129646144,-0.36573770094890984,0.002495995257049799,0.013391999527812004,0.00558086484670639,0.7115380167961121,0.4837000072002411,0.29034700989723206,0.4188610017299652
2021-01-14 15:00:39.665,-0.002443137559659627,-0.928880925081214,-0.3662263130655094,0.002495995257049799,0.011559403501451015,0.006191730033606291,0.7116199731826782,0.48375600576400757,0.29012998938560486,0.4188080132007599
2021-01-14 15:00:39.675,-4.886275119319254E-4,-0.9301025040295658,-0.3703796620271644,0.003106860676780343,0.007894211448729038,0.006802595220506191,0.711700975894928,0.4838150143623352,0.28992700576782227,0.4187430143356323
2021-01-14 15:00:39.685,-0.0026874514106585055,-0.9301025040295658,-0.3698910255821383,6.633996381424367E-4,0.006061615888029337,0.007413460873067379,0.7117800116539001,0.48387598991394043,0.28973299264907837,0.41867199540138245
2021-01-14 15:00:39.696,-0.0034203927735893093,-0.928880925081214,-0.3667149495105354,-5.58330852072686E-4,0.005450750235468149,0.006191730033606291,0.7118610143661499,0.4839339852333069,0.28954800963401794,0.41859498620033264
2021-01-14 15:00:39.706,-0.006596471125982245,-0.9305911161461654,-0.37135691058878995,-0.0011691960971802473,0.004229020327329636,0.00496999965980649,0.7119410037994385,0.48399099707603455,0.28936898708343506,0.4185180068016052
2021-01-14 15:00:39.716,-0.0051305887802523,-0.9301025040295658,-0.3659820070072096,-0.0017800614004954696,0.003007289720699191,0.00496999965980649,0.7120180130004883,0.484048992395401,0.2891950011253357,0.41843900084495544
2021-01-14 15:00:39.726,-0.004886275119319254,-0.9303467614310128,-0.3728227955954415,-0.002390926703810692,0.0017855591140687466,0.0019156733760610223,0.7120940089225769,0.48410698771476746,0.28902000188827515,0.4183639883995056
2021-01-14 15:00:39.736,-0.005374902821317011,-0.9283923129646144,-0.36964671952383854,-0.002390926703810692,0.002396424300968647,0.0019156733760610223,0.7121660113334656,0.4841670095920563,0.28885000944137573,0.418287992477417
2021-01-14 15:00:39.746,-0.004641961458386207,-0.9286365703660614,-0.3723341591504155,-0.0017800614004954696,0.0017855591140687466,0.0013048081891611218,0.7122399806976318,0.48422399163246155,0.28867998719215393,0.4182150065898895
2021-01-14 15:00:39.756,-0.005374902821317011,-0.929125182482661,-0.37062396808546416,6.633996381424367E-4,0.0017855591140687466,0.0025265386793762445,0.7123119831085205,0.4842810034751892,0.2885110080242157,0.4181419909000397
2021-01-14 15:00:39.766,-0.004397647417321497,-0.9279036035343091,-0.36891377702051276,6.633996381424367E-4,0.002396424300968647,0.0025265386793762445,0.7123860120773315,0.4843350052833557,0.2883419990539551,0.4180710017681122
2021-01-14 15:00:39.776,-0.004641961458386207,-0.9286365703660614,-0.3703796620271644,6.633996381424367E-4,0.004229020327329636,0.003137403866276145,0.7124580144882202,0.48438701033592224,0.2881760001182556,0.41800200939178467
2021-01-14 15:00:39.786,-0.00415333375638845,-0.9305911161461654,-0.3667149495105354,6.633996381424367E-4,0.003007289720699191,0.0037482690531760454,0.7125300168991089,0.48443999886512756,0.28801199793815613,0.4179309904575348
2021-01-14 15:00:39.796,-0.003909020095455403,-0.9298581493144132,-0.36842514057548675,-0.0011691960971802473,0.002396424300968647,0.00558086484670639,0.7126010060310364,0.4844909906387329,0.2878510057926178,0.4178610146045685
2021-01-14 15:00:39.806,-0.003909020095455403,-0.9320569524959641,-0.3667149495105354,-0.0030017916578799486,0.0011746938107535243,0.00496999965980649,0.7127349972724915,0.4845980107784271,0.2875469923019409,0.41771799325942993
2021-01-14 15:00:39.816,-0.005374902821317011,-0.9345001103926678,-0.37135691058878995,-0.0030017916578799486,0.0011746938107535243,0.00496999965980649,0.7127349972724915,0.4845980107784271,0.2875469923019409,0.41771799325942993
2021-01-14 15:00:39.826,-0.006840785547178619,-0.9366989135742186,-0.3698910255821383,-0.0011691960971802473,-0.0037122280336916447,0.00558086484670639,0.7128580212593079,0.48470500111579895,0.2872619926929474,0.4175789952278137
2021-01-14 15:00:39.836,-0.006596471125982245,-0.9347444651078204,-0.3701353316404381,-0.0011691960971802473,-0.0037122280336916447,0.00558086484670639,0.7128580212593079,0.48470500111579895,0.2872619926929474,0.4175789952278137
2021-01-14 15:00:39.846,-0.008795294834642994,-0.9366989135742186,-0.3698910255821383,0.001274264883249998,-0.002490497659891844,0.00496999965980649,0.7129160165786743,0.48475998640060425,0.2871229946613312,0.41751399636268616
2021-01-14 15:00:39.856,-0.008795294834642994,-0.93840910463917,-0.36866944663378654,0.0018851301865652204,5.638286238536239E-4,0.00558086484670639,0.7129709720611572,0.48481398820877075,0.28698399662971497,0.41745099425315857
2021-01-14 15:00:39.866,-0.009772550238638508,-0.9337671435609155,-0.3679365284588872,0.002495995257049799,0.0017855591140687466,0.0037482690531760454,0.7130230069160461,0.4848710000514984,0.28684499859809875,0.41739198565483093
2021-01-14 15:00:39.876,-0.009039609255839366,-0.9340114982760682,-0.3672035859555614,-5.58330852072686E-4,0.003007289720699191,0.003137403866276145,0.7131159901618958,0.48499301075935364,0.2865679860115051,0.41728198528289795
2021-01-14 15:00:39.886,-0.0083066675127769,-0.9327899193277164,-0.3664706434522356,-5.58330852072686E-4,0.003007289720699191,0.003137403866276145,0.7131159901618958,0.48499301075935364,0.2865679860115051,0.41728198528289795
2021-01-14 15:00:39.896,-0.006596471125982245,-0.9301025040295658,-0.3674478920138612,-0.002390926703810692,0.004229020327329636,0.0025265386793762445,0.7131980061531067,0.4851219952106476,0.28629499673843384,0.41718000173568726
2021-01-14 15:00:39.906,-0.004397647417321497,-0.929125182482661,-0.368180834517187,-0.002390926703810692,0.004229020327329636,0.0025265386793762445,0.7131980061531067,0.4851219952106476,0.28629499673843384,0.41718000173568726
2021-01-14 15:00:39.916,-0.0036647064345223562,-0.9286365703660614,-0.3701353316404381,-0.0036126570776104927,0.002396424300968647,0.0025265386793762445,0.7132369875907898,0.48518499732017517,0.28616300225257874,0.4171290099620819
2021-01-14 15:00:39.926,-0.004397647417321497,-0.9296137945992605,-0.368180834517187,-0.004834387917071581,0.0011746938107535243,0.003137403866276145,0.7132779955863953,0.4852440059185028,0.28603699803352356,0.41707900166511536
2021-01-14 15:00:39.936,-0.005374902821317011,-0.9293695371978137,-0.36842514057548675,-0.004834387917071581,-6.579018663614988E-4,0.0019156733760610223,0.7133200168609619,0.48529699444770813,0.28591498732566833,0.41702800989151
2021-01-14 15:00:39.946,-0.007573726529977759,-0.9296137945992605,-0.36573770094890984,-0.004223522264510393,-0.0018796323565766215,0.0013048081891611218,0.7133619785308838,0.4853470027446747,0.28579801321029663,0.4169769883155823
2021-01-14 15:00:39.956,-0.006840785547178619,-0.9298581493144132,-0.3679365284588872,-0.0036126570776104927,-0.001268767169676721,0.0013048081891611218,0.7134039998054504,0.48539501428604126,0.2856850028038025,0.4169290065765381
2021-01-14 15:00:39.966,-0.006596471125982245,-0.9301025040295658,-0.37062396808546416,-0.0036126570776104927,-0.001268767169676721,-5.277875461615622E-4,0.7134420275688171,0.4854449927806854,0.28557199239730835,0.4168820083141327
2021-01-14 15:00:39.976,-0.007573726529977759,-0.9296137945992605,-0.3679365284588872,-0.0036126570776104927,-0.0018796323565766215,8.30776771181263E-5,0.7134810090065002,0.4854939877986908,0.2854610085487366,0.4168350100517273
2021-01-14 15:00:39.986,-0.006352157465049199,-0.9293695371978137,-0.3701353316404381,-0.0030017916578799486,-0.0018796323565766215,0.0013048081891611218,0.7135199904441833,0.4855400025844574,0.2853490114212036,0.4167900085449219
2021-01-14 15:00:39.996,-0.005863530143183105,-0.928880925081214,-0.37086827414376394,6.633996381424367E-4,-0.0018796323565766215,0.0025265386793762445,0.713595986366272,0.48563000559806824,0.28512901067733765,0.41670599579811096
2021-01-14 15:00:40.006,-0.005619216482250057,-0.9305911161461654,-0.37111260453049016,6.633996381424367E-4,-0.0018796323565766215,0.0025265386793762445,0.713595986366272,0.48563000559806824,0.28512901067733765,0.41670599579811096
2021-01-14 15:00:40.016,-0.006107843804116151,-0.9315683403793645,-0.3694023891371123,0.002495995257049799,-0.0037122280336916447,0.0025265386793762445,0.7136359810829163,0.4856710135936737,0.28501999378204346,0.4166649878025055
2021-01-14 15:00:40.026,-0.002443137559659627,-0.9313240829779177,-0.36915808307881254,0.003717726096510887,-0.001268767169676721,0.0037482690531760454,0.7136780023574829,0.485709011554718,0.28491100668907166,0.41662201285362244
2021-01-14 15:00:40.036,-0.004886275119319254,-0.9327899193277164,-0.36842514057548675,0.004328591283410788,5.638286238536239E-4,0.0037482690531760454,0.7137179970741272,0.4857479929924011,0.2848049998283386,0.41658100485801697
2021-01-14 15:00:40.046,-0.004397647417321497,-0.9313240829779177,-0.36769219807216097,0.001274264883249998,0.002396424300968647,0.0025265386793762445,0.713798999786377,0.4858199954032898,0.28461000323295593,0.4164919853210449
2021-01-14 15:00:40.056,-0.00415333375638845,-0.9327899193277164,-0.3701353316404381,-0.0017800614004954696,-4.703662489191629E-5,0.004359134007245302,0.7138370275497437,0.4858570098876953,0.2845180034637451,0.4164470136165619
2021-01-14 15:00:40.066,-0.004886275119319254,-0.9345001103926678,-0.37135691058878995,-0.002390926703810692,-0.001268767169676721,0.0013048081891611218,0.7138739824295044,0.4858910143375397,0.28442901372909546,0.41640499234199524
2021-01-14 15:00:40.076,-0.004886275119319254,-0.9359660440561722,-0.36915808307881254,5.253441122476943E-5,-0.0018796323565766215,6.939428858458996E-4,0.7139099836349487,0.48592299222946167,0.28434300422668457,0.41636401414871216
2021-01-14 15:00:40.086,-0.0029317650715915524,-0.9369432682893714,-0.3669592555688352,5.253441122476943E-5,-6.579018663614988E-4,-5.277875461615622E-4,0.7139449715614319,0.48595601320266724,0.28425899147987366,0.4163219928741455
2021-01-14 15:00:40.096,-0.0019545100477277016,-0.9318126950945173,-0.3674478920138612,-0.0030017916578799486,-0.0018796323565766215,-5.277875461615622E-4,0.7139779925346375,0.4859899878501892,0.28418201208114624,0.41627898812294006
2021-01-14 15:00:40.106,-0.004886275119319254,-0.9301025040295658,-0.365004758445584,-0.0030017916578799486,-0.0018796323565766215,-5.277875461615622E-4,0.7139779925346375,0.4859899878501892,0.28418201208114624,0.41627898812294006
2021-01-14 15:00:40.116,-0.0019545100477277016,-0.9261934124693578,-0.36842514057548675,-0.004834387917071581,-0.005544823594391346,-5.277875461615622E-4,0.7140089869499207,0.4860219955444336,0.28411000967025757,0.416238009929657
2021-01-14 15:00:40.126,-0.0021988237086607485,-0.924971833521006,-0.36915808307881254,-0.004834387917071581,-0.008599149994552135,6.939428858458996E-4,0.7140380144119263,0.4860549867153168,0.28404000401496887,0.41619598865509033
2021-01-14 15:00:40.136,-0.0034203927735893093,-0.9254605429513113,-0.3694023891371123,-0.0036126570776104927,-0.009210015647113323,0.0013048081891611218,0.7140679955482483,0.4860840141773224,0.28397300839424133,0.4161570072174072
2021-01-14 15:00:40.146,-0.007818040190910806,-0.924971833521006,-0.3698910255821383,-0.0011691960971802473,-0.007988284341990948,0.0019156733760610223,0.7140979766845703,0.4861089885234833,0.28390899300575256,0.4161210060119629
2021-01-14 15:00:40.156,-0.008062353851843852,-0.9254605429513113,-0.3694023891371123,0.0018851301865652204,-0.006155689246952534,0.0025265386793762445,0.7141590118408203,0.4861519932746887,0.28377699851989746,0.41605499386787415
2021-01-14 15:00:40.166,-0.005374902821317011,-0.9254605429513113,-0.3698910255821383,0.004328591283410788,-0.006766554433852434,0.003137403866276145,0.7141590118408203,0.4861519932746887,0.28377699851989746,0.41605499386787415
2021-01-14 15:00:40.176,-0.006840785547178619,-0.9254605429513113,-0.36891377702051276,0.006772052496671677,-0.007377419620752335,0.0019156733760610223,0.7141889929771423,0.48617300391197205,0.2837049961090088,0.4160279929637909
2021-01-14 15:00:40.186,-0.004886275119319254,-0.9247275761195591,-0.3679365284588872,0.006772052496671677,-0.009210015647113323,6.939428858458996E-4,0.7142199873924255,0.48619401454925537,0.2836320102214813,0.41600099205970764
2021-01-14 15:00:40.196,-0.005374902821317011,-0.9254605429513113,-0.3647604280588578,0.00738291721791029,-0.011042610742151737,-5.277875461615622E-4,0.7142509818077087,0.4862140119075775,0.2835580110549927,0.41597500443458557
2021-01-14 15:00:40.206,-0.007085099208111665,-0.9281479582494618,-0.3652490645038838,0.006161186844110489,-0.011042610742151737,-0.0011386527912691236,0.7142840027809143,0.48623499274253845,0.28348299860954285,0.41594499349594116
2021-01-14 15:00:40.216,-0.006352157465049199,-0.9301025040295658,-0.36964671952383854,0.004328591283410788,-0.01043174508959055,-0.003582113655284047,0.7143139839172363,0.48625800013542175,0.2834100127220154,0.41591599583625793
2021-01-14 15:00:40.226,-0.007085099208111665,-0.9318126950945173,-0.368180834517187,0.003717726096510887,-0.008599149994552135,-0.005414709448814392,0.7143409848213196,0.4862839877605438,0.2833400070667267,0.4158869981765747
2021-01-14 15:00:40.236,-0.008062353851843852,-0.9340114982760682,-0.3716012166470897,0.003106860676780343,-0.005544823594391346,-0.007247305475175381,0.7143679857254028,0.4863089919090271,0.283268004655838,0.41585901379585266
2021-01-14 15:00:40.246,-0.007818040190910806,-0.9357216893410195,-0.3694023891371123,0.004328591283410788,-0.0018796323565766215,-0.0060255746357142925,0.7143939733505249,0.48633599281311035,0.28319698572158813,0.4158309996128082
2021-01-14 15:00:40.256,-0.010016863899571554,-0.9391420714709223,-0.37184554703381595,0.004328591283410788,-4.703662489191629E-5,-0.004803844261914492,0.7144190073013306,0.4863629937171936,0.28312501311302185,0.41580599546432495
2021-01-14 15:00:40.266,-0.0083066675127769,-0.9357216893410195,-0.37257848953714173,0.004328591283410788,-6.579018663614988E-4,-0.003582113655284047,0.7144439816474915,0.48639199137687683,0.283051997423172,0.4157800078392029
2021-01-14 15:00:40.276,-0.004397647417321497,-0.9340114982760682,-0.36964671952383854,0.004939456470310688,-0.0018796323565766215,-0.0029712487012147903,0.7144659757614136,0.48642200231552124,0.28297701478004456,0.4157559871673584
2021-01-14 15:00:40.286,-0.005619216482250057,-0.931079728262765,-0.37208985309211573,0.00738291721791029,-6.579018663614988E-4,8.30776771181263E-5,0.7144889831542969,0.48645099997520447,0.2829020023345947,0.41573500633239746
2021-01-14 15:00:40.296,-0.006596471125982245,-0.9298581493144132,-0.3733114077120411,0.00738291721791029,-4.703662489191629E-5,0.0025265386793762445,0.7145130038261414,0.4864799976348877,0.2828289866447449,0.4157100021839142
2021-01-14 15:00:40.306,-0.004641961458386207,-0.929125182482661,-0.37404435021536686,0.009215513244271278,0.0011746938107535243,0.004359134007245302,0.7145379781723022,0.48650598526000977,0.2827579975128174,0.4156849980354309
2021-01-14 15:00:40.316,-0.0073294128690447125,-0.9261934124693578,-0.36891377702051276,0.009826377965509892,0.002396424300968647,0.007413460873067379,0.7145659923553467,0.48652899265289307,0.2826850116252899,0.41565999388694763
2021-01-14 15:00:40.326,-0.011238432964500115,-0.9259491550679109,-0.3738000441570671,0.01043724361807108,0.0017855591140687466,0.007413460873067379,0.7145980000495911,0.4865480065345764,0.2826099991798401,0.4156329929828644
2021-01-14 15:00:40.336,-0.00952823657770546,-0.9259491550679109,-0.37257848953714173,0.009826377965509892,0.003618154674768448,0.008024326525628567,0.7146279811859131,0.48656800389289856,0.28253600001335144,0.4156079888343811
2021-01-14 15:00:40.346,-0.008550981173709947,-0.9232616424560546,-0.37184554703381595,0.00860464759171009,0.004839885048568249,0.007413460873067379,0.7146610021591187,0.4865869879722595,0.2824540138244629,0.4155850112438202
2021-01-14 15:00:40.356,-0.010505491221437648,-0.9252161882361587,-0.37111260453049016,0.009215513244271278,0.005450750235468149,0.007413460873067379,0.7146949768066406,0.4866049885749817,0.282368004322052,0.41556400060653687
2021-01-14 15:00:40.366,-0.008795294834642994,-0.9266821218996631,-0.36866944663378654,0.00860464759171009,0.007283346261829138,0.00558086484670639,0.7146869897842407,0.48665401339530945,0.2822990119457245,0.415567010641098
2021-01-14 15:00:40.377,-0.007573726529977759,-0.9274149914177096,-0.3694023891371123,0.009215513244271278,0.007283346261829138,0.004359134007245302,0.7146810293197632,0.4866960048675537,0.2822360098361969,0.4155699908733368
2021-01-14 15:00:40.387,-0.006352157465049199,-0.9266821218996631,-0.3664706434522356,0.00860464759171009,0.01033767219632864,0.0037482690531760454,0.714676022529602,0.48673900961875916,0.28217899799346924,0.415567010641098
2021-01-14 15:00:40.397,-0.006352157465049199,-0.9296137945992605,-0.3659820070072096,0.006772052496671677,0.012781133875250816,0.0037482690531760454,0.7146700024604797,0.4867739975452423,0.2821339964866638,0.4155679941177368
2021-01-14 15:00:40.407,-0.005863530143183105,-0.9313240829779177,-0.3672035859555614,0.006161186844110489,0.013391999527812004,0.0037482690531760454,0.7146620154380798,0.4867990016937256,0.28210100531578064,0.4155760109424591
2021-01-14 15:00:40.417,-0.004397647417321497,-0.9320569524959641,-0.36573770094890984,0.0055503216572105885,0.012781133875250816,0.0037482690531760454,0.7146530151367188,0.4868229925632477,0.2820720076560974,0.41558200120925903
2021-01-14 15:00:40.427,-0.007085099208111665,-0.9296137945992605,-0.3742886806020931,0.0055503216572105885,0.010948537848889828,0.0019156733760610223,0.7146459817886353,0.48684701323509216,0.282043993473053,0.415583997964859
2021-01-14 15:00:40.437,-0.0073294128690447125,-0.9298581493144132,-0.3730671016537413,0.003106860676780343,0.009726807475090027,0.003137403866276145,0.7146440148353577,0.4868749976158142,0.2820200026035309,0.41557198762893677
2021-01-14 15:00:40.447,-0.006596471125982245,-0.929125182482661,-0.36256162487730687,0.002495995257049799,0.009726807475090027,0.0013048081891611218,0.7146490216255188,0.48689401149749756,0.2819800078868866,0.415567010641098
2021-01-14 15:00:40.457,-0.003909020095455403,-0.9281479582494618,-0.3369086615893305,0.001274264883249998,0.009726807475090027,6.939428858458996E-4,0.7146610021591187,0.4869059920310974,0.2819429934024811,0.41555801033973694
2021-01-14 15:00:40.467,-0.00415333375638845,-0.9298581493144132,-0.39578829492841444,6.633996381424367E-4,0.01033767219632864,-0.0011386527912691236,0.7146739959716797,0.48691800236701965,0.2819089889526367,0.4155449867248535
2021-01-14 15:00:40.477,-9.772550238638508E-4,-0.9327899193277164,-0.33422122196275356,0.0018851301865652204,0.010948537848889828,6.939428858458996E-4,0.714676022529602,0.48694199323654175,0.28189700841903687,0.4155209958553314
2021-01-14 15:00:40.487,-0.008550981173709947,-0.9349887225092673,-0.4045835806398975,0.001274264883249998,0.009115941822528839,0.003137403866276145,0.7146859765052795,0.48695001006126404,0.28187501430511475,0.41550999879837036
2021-01-14 15:00:40.497,-0.005374902821317011,-0.9362103014576191,-0.3960326009867142,0.002495995257049799,0.009115941822528839,0.00496999965980649,0.7146779894828796,0.4869830012321472,0.28185999393463135,0.41549599170684814
2021-01-14 15:00:40.507,4.886275119319254E-4,-0.9374318804059709,-0.3728227955954415,0.001274264883249998,0.004839885048568249,0.008024326525628567,0.714680016040802,0.4869979918003082,0.281825989484787,0.4154979884624481
2021-01-14 15:00:40.517,-0.0031760787325245993,-0.9379204925225705,-0.3576753334123261,6.633996381424367E-4,-6.579018663614988E-4,0.009246056899428368,0.714726984500885,0.4870170056819916,0.2816700041294098,0.4154999852180481
2021-01-14 15:00:40.527,-0.005863530143183105,-0.9376762351211235,-0.3581639698573521,6.633996381424367E-4,-6.579018663614988E-4,0.009246056899428368,0.714726984500885,0.4870170056819916,0.2816700041294098,0.4154999852180481
2021-01-14 15:00:40.537,-0.0073294128690447125,-0.9398750383026745,-0.39212358241178547,0.001274264883249998,-0.0018796323565766215,0.006802595220506191,0.7147489786148071,0.48705199360847473,0.2815859913825989,0.415477991104126
2021-01-14 15:00:40.548,-0.007085099208111665,-0.9369432682893714,-0.35181181771414616,6.633996381424367E-4,-0.002490497659891844,0.00558086484670639,0.7147660255432129,0.48709601163864136,0.2815139889717102,0.415446013212204
2021-01-14 15:00:40.558,-0.00952823657770546,-0.9369432682893714,-0.348880047700843,-5.58330852072686E-4,-0.005544823594391346,0.0019156733760610223,0.7147970199584961,0.4871250092983246,0.2814309895038605,0.4154149889945984
2021-01-14 15:00:40.568,-0.005374902821317011,-0.9376762351211235,-0.3454596412425138,5.253441122476943E-5,-0.0037122280336916447,-5.277875461615622E-4,0.7148299813270569,0.4871639907360077,0.28135499358177185,0.41536301374435425
2021-01-14 15:00:40.578,-0.005863530143183105,-0.9347444651078204,-0.3574310273540263,0.0018851301865652204,-0.001268767169676721,-0.0017495180945843458,0.7148510217666626,0.4872109889984131,0.28130099177360535,0.41530999541282654
2021-01-14 15:00:40.588,-0.006596471125982245,-0.9315683403793645,-0.3584082759156519,0.001274264883249998,-0.001268767169676721,-0.003582113655284047,0.7148500084877014,0.4872649908065796,0.2812719941139221,0.4152680039405823
2021-01-14 15:00:40.598,-0.006596471125982245,-0.9335228861594687,-0.3669592555688352,-0.0011691960971802473,-0.002490497659891844,-0.004192979075014591,0.7148410081863403,0.4873200058937073,0.2812510132789612,0.41523298621177673
2021-01-14 15:00:40.608,-0.004886275119319254,-0.9303467614310128,-0.3679365284588872,-5.58330852072686E-4,-0.0031013628467917442,-0.003582113655284047,0.7148249745368958,0.4873720109462738,0.28123700618743896,0.41520801186561584
2021-01-14 15:00:40.618,-0.006596471125982245,-0.9296137945992605,-0.37062396808546416,6.633996381424367E-4,-0.004323093220591545,-0.003582113655284047,0.7148110270500183,0.4874170124530792,0.28122299909591675,0.4151880145072937
2021-01-14 15:00:40.628,-0.0073294128690447125,-0.9279036035343091,-0.3694023891371123,0.002495995257049799,-0.005544823594391346,-0.0029712487012147903,0.714805006980896,0.48745599389076233,0.2812039852142334,0.4151670038700104
2021-01-14 15:00:40.638,-0.0051305887802523,-0.9271707340162627,-0.36866944663378654,0.004939456470310688,-0.006155689246952534,-0.0011386527912691236,0.7147960066795349,0.4874829947948456,0.2811889946460724,0.4151589870452881
2021-01-14 15:00:40.648,-0.007085099208111665,-0.9264377671845104,-0.3672035859555614,0.006772052496671677,-0.007988284341990948,-0.0011386527912691236,0.7147909998893738,0.4875049889087677,0.2811720073223114,0.41515401005744934
2021-01-14 15:00:40.658,-0.006107843804116151,-0.9266821218996631,-0.365004758445584,0.00738291721791029,-0.006766554433852434,-0.0023603832814842463,0.714792013168335,0.48752498626708984,0.2811489999294281,0.41514500975608826
2021-01-14 15:00:40.668,-0.007085099208111665,-0.9261934124693578,-0.36549337056218356,0.006772052496671677,-0.006155689246952534,-0.0011386527912691236,0.7147909998893738,0.48754099011421204,0.28112900257110596,0.4151419997215271
2021-01-14 15:00:40.678,-0.006596471125982245,-0.92692637930111,-0.36158435198725486,0.006772052496671677,-0.006155689246952534,-0.0011386527912691236,0.7147909998893738,0.48755601048469543,0.28110799193382263,0.41513800621032715
2021-01-14 15:00:40.688,-0.008550981173709947,-0.9266821218996631,-0.360851409483929,0.004328591283410788,-0.0049339584074914455,-5.277875461615622E-4,0.7147840261459351,0.4875659942626953,0.2810949981212616,0.415147989988327
2021-01-14 15:00:40.698,-0.0083066675127769,-0.9281479582494618,-0.3672035859555614,0.003717726096510887,-0.005544823594391346,-5.277875461615622E-4,0.7147819995880127,0.4875819981098175,0.28107398748397827,0.4151439964771271
2021-01-14 15:00:40.708,-0.008795294834642994,-0.929125182482661,-0.3667149495105354,0.002495995257049799,-0.007988284341990948,-5.277875461615622E-4,0.7147819995880127,0.4876039922237396,0.2810499966144562,0.4151360094547272
2021-01-14 15:00:40.718,-0.010749805642634022,-0.9308353735476124,-0.3672035859555614,0.0018851301865652204,-0.008599149994552135,-0.0011386527912691236,0.7147719860076904,0.48761799931526184,0.28103500604629517,0.41514700651168823
2021-01-14 15:00:40.728,-0.0102611775605046,-0.929125182482661,-0.3669592555688352,0.004939456470310688,-0.007988284341990948,-0.0011386527912691236,0.7147700190544128,0.4876349866390228,0.2810109853744507,0.41514599323272705
2021-01-14 15:00:40.738,-0.0102611775605046,-0.9293695371978137,-0.3652490645038838,0.0055503216572105885,-0.0049339584074914455,-0.0023603832814842463,0.7147700190544128,0.48765599727630615,0.2809799909591675,0.4151430130004883
2021-01-14 15:00:40.748,-0.0083066675127769,-0.929125182482661,-0.364516122000558,0.006772052496671677,-0.0031013628467917442,-0.0029712487012147903,0.7147679924964905,0.4876739978790283,0.28095000982284546,0.41514599323272705
2021-01-14 15:00:40.758,-0.008062353851843852,-0.931079728262765,-0.3728227955954415,0.004328591283410788,-4.703662489191629E-5,-0.004192979075014591,0.7147629857063293,0.4877159893512726,0.2808850109577179,0.4151490032672882
2021-01-14 15:00:40.768,-0.0083066675127769,-0.9323013072111168,-0.36769219807216097,0.003717726096510887,0.0017855591140687466,-0.0017495180945843458,0.7147650122642517,0.48773398995399475,0.28084999322891235,0.4151490032672882
2021-01-14 15:00:40.778,-0.0051305887802523,-0.9366989135742186,-0.3672035859555614,0.003106860676780343,0.002396424300968647,-0.0011386527912691236,0.7147650122642517,0.48774901032447815,0.28081798553466797,0.41515299677848816
2021-01-14 15:00:40.788,-0.005374902821317011,-0.9376762351211235,-0.3669592555688352,0.003106860676780343,0.002396424300968647,-0.0011386527912691236,0.7147650122642517,0.48774901032447815,0.28081798553466797,0.41515299677848816
2021-01-14 15:00:40.798,-0.002443137559659627,-0.9376762351211235,-0.3672035859555614,0.001274264883249998,0.0017855591140687466,0.0013048081891611218,0.7147639989852905,0.48776400089263916,0.2807910144329071,0.41515401005744934
2021-01-14 15:00:40.808,-0.00415333375638845,-0.9349887225092673,-0.368180834517187,-0.0011691960971802473,-4.703662489191629E-5,0.0019156733760610223,0.7147690057754517,0.48778200149536133,0.2807610034942627,0.41514500975608826
2021-01-14 15:00:40.818,-0.0019545100477277016,-0.9318126950945173,-0.3667149495105354,-0.0036126570776104927,-0.0031013628467917442,0.003137403866276145,0.7147690057754517,0.48779600858688354,0.28074198961257935,0.4151409864425659
2021-01-14 15:00:40.828,-0.003909020095455403,-0.9315683403793645,-0.3664706434522356,-0.0060561178252100945,-0.005544823594391346,0.0037482690531760454,0.7147709727287292,0.4878090023994446,0.2807239890098572,0.4151360094547272
2021-01-14 15:00:40.838,-0.0031760787325245993,-0.9318126950945173,-0.3662263130655094,-0.007277848664671183,-0.005544823594391346,0.003137403866276145,0.7147759795188904,0.4878210127353668,0.280705988407135,0.41512399911880493
2021-01-14 15:00:40.848,-0.005863530143183105,-0.9323013072111168,-0.36573770094890984,-0.0060561178252100945,-0.004323093220591545,0.003137403866276145,0.7147819995880127,0.4878329932689667,0.2806900143623352,0.4151110053062439
2021-01-14 15:00:40.858,-0.004641961458386207,-0.9305911161461654,-0.36549337056218356,-0.004834387917071581,-0.002490497659891844,0.0025265386793762445,0.7147859930992126,0.48784199357032776,0.28067800402641296,0.41510099172592163
2021-01-14 15:00:40.868,-0.005863530143183105,-0.931079728262765,-0.3672035859555614,5.253441122476943E-5,-0.0018796323565766215,0.0037482690531760454,0.714788019657135,0.48785901069641113,0.2806589901447296,0.41508999466896057
2021-01-14 15:00:40.878,-0.008795294834642994,-0.9301025040295658,-0.3694023891371123,5.253441122476943E-5,-0.0018796323565766215,0.0037482690531760454,0.714788019657135,0.48785901069641113,0.2806589901447296,0.41508999466896057
2021-01-14 15:00:40.888,-0.0073294128690447125,-0.9323013072111168,-0.36842514057548675,0.004328591283410788,-0.005544823594391346,0.0037482690531760454,0.7147849798202515,0.4878639876842499,0.28065499663352966,0.41509300470352173
2021-01-14 15:00:40.898,-0.007573726529977759,-0.931079728262765,-0.3659820070072096,0.006161186844110489,-0.006155689246952534,0.0019156733760610223,0.7147819995880127,0.4878680109977722,0.28064700961112976,0.41509801149368286
2021-01-14 15:00:40.908,-0.009772550238638508,-0.9313240829779177,-0.3642718159422582,0.00738291721791029,-0.006766554433852434,0.0025265386793762445,0.7147889733314514,0.4878790080547333,0.28062599897384644,0.4150879979133606
2021-01-14 15:00:40.918,-0.0102611775605046,-0.9323013072111168,-0.3664706434522356,0.006161186844110489,-0.0049339584074914455,6.939428858458996E-4,0.7147949934005737,0.48789000511169434,0.2806049883365631,0.4150780141353607
2021-01-14 15:00:40.929,-0.009039609255839366,-0.9301025040295658,-0.365004758445584,0.004328591283410788,-0.0037122280336916447,-5.277875461615622E-4,0.7147899866104126,0.48789799213409424,0.28059399127960205,0.4150860011577606
2021-01-14 15:00:40.939,-0.008062353851843852,-0.9286365703660614,-0.36549337056218356,0.002495995257049799,-0.0049339584074914455,-0.0011386527912691236,0.7147930264472961,0.4879150092601776,0.2805689871311188,0.4150780141353607
2021-01-14 15:00:40.949,-0.008795294834642994,-0.9313240829779177,-0.3647604280588578,0.0018851301865652204,-0.0049339584074914455,-0.0029712487012147903,0.7147840261459351,0.4879409968852997,0.28053098917007446,0.4150870144367218
2021-01-14 15:00:40.959,-0.0051305887802523,-0.931079728262765,-0.3642718159422582,0.001274264883249998,-0.004323093220591545,-0.0023603832814842463,0.7147859930992126,0.48796001076698303,0.2805050015449524,0.4150800108909607
2021-01-14 15:00:40.969,-0.007818040190910806,-0.929125182482661,-0.364027485555532,0.002495995257049799,-0.0037122280336916447,-0.0029712487012147903,0.7147870063781738,0.487978994846344,0.2804819941520691,0.4150719940662384
2021-01-14 15:00:40.979,-0.007818040190910806,-0.9303467614310128,-0.365004758445584,0.003106860676780343,-0.0031013628467917442,-0.0029712487012147903,0.7147780060768127,0.48799100518226624,0.28047001361846924,0.4150800108909607
2021-01-14 15:00:40.989,-0.007085099208111665,-0.928880925081214,-0.3659820070072096,0.003106860676780343,-0.0031013628467917442,-0.0029712487012147903,0.7147780060768127,0.48799100518226624,0.28047001361846924,0.4150800108909607
2021-01-14 15:00:40.999,-0.006840785547178619,-0.9279036035343091,-0.3642718159422582,0.003717726096510887,-0.0037122280336916447,-0.0029712487012147903,0.7147700190544128,0.48800399899482727,0.2804589867591858,0.4150870144367218
2021-01-14 15:00:41.009,-0.007573726529977759,-0.9281479582494618,-0.3667149495105354,0.002495995257049799,-0.0037122280336916447,-0.0023603832814842463,0.7147690057754517,0.48802000284194946,0.28043898940086365,0.41508400440216064
2021-01-14 15:00:41.019,-0.009772550238638508,-0.9279036035343091,-0.3694023891371123,0.001274264883249998,-0.0031013628467917442,-0.0017495180945843458,0.7147679924964905,0.48803600668907166,0.2804200053215027,0.4150789976119995
2021-01-14 15:00:41.029,-0.00952823657770546,-0.9266821218996631,-0.36891377702051276,0.001274264883249998,-0.0018796323565766215,-5.277875461615622E-4,0.7147610187530518,0.48804599046707153,0.28040799498558044,0.4150870144367218
2021-01-14 15:00:41.039,-0.0102611775605046,-0.9257048003527583,-0.3703796620271644,0.001274264883249998,-0.001268767169676721,6.939428858458996E-4,0.7147629857063293,0.4880580008029938,0.28038498759269714,0.4150860011577606
2021-01-14 15:00:41.049,-0.010505491221437648,-0.9279036035343091,-0.36915808307881254,0.0018851301865652204,-6.579018663614988E-4,8.30776771181263E-5,0.7147679924964905,0.4880709946155548,0.2803559899330139,0.4150809943675995
2021-01-14 15:00:41.059,-0.0102611775605046,-0.9301025040295658,-0.3674478920138612,0.001274264883249998,-4.703662489191629E-5,8.30776771181263E-5,0.7147719860076904,0.4880790114402771,0.2803269922733307,0.41508400440216064
2021-01-14 15:00:41.069,-0.010505491221437648,-0.9301025040295658,-0.3672035859555614,-5.58330852072686E-4,0.0017855591140687466,8.30776771181263E-5,0.7147769927978516,0.488086998462677,0.2802950143814087,0.4150890111923218
2021-01-14 15:00:41.079,-0.009772550238638508,-0.9318126950945173,-0.3652490645038838,-0.004223522264510393,0.007894211448729038,-0.0011386527912691236,0.7147899866104126,0.4881100058555603,0.28022199869155884,0.4150870144367218
2021-01-14 15:00:41.090,-0.0102611775605046,-0.9349887225092673,-0.3667149495105354,-0.005445253103971481,0.012781133875250816,6.939428858458996E-4,0.7147989869117737,0.4881269931793213,0.28018200397491455,0.4150800108909607
2021-01-14 15:00:41.100,-0.010749805642634022,-0.9364546561727718,-0.3647604280588578,-0.007277848664671183,0.015224593691527843,0.0013048081891611218,0.7148060202598572,0.48814600706100464,0.28014299273490906,0.4150719940662384
2021-01-14 15:00:41.110,-0.009772550238638508,-0.9357216893410195,-0.36256162487730687,-0.007277848664671183,0.015224593691527843,0.0013048081891611218,0.7148060202598572,0.48814600706100464,0.28014299273490906,0.4150719940662384
2021-01-14 15:00:41.120,-0.010016863899571554,-0.9364546561727718,-0.364516122000558,-0.00849957950413227,0.017057189717888832,0.0019156733760610223,0.714809000492096,0.4881669878959656,0.2801069915294647,0.4150660037994385
2021-01-14 15:00:41.130,-0.006596471125982245,-0.9376762351211235,-0.36353887343893243,-0.00849957950413227,0.017057189717888832,0.0019156733760610223,0.714809000492096,0.48819199204444885,0.28007400035858154,0.41505900025367737
2021-01-14 15:00:41.140,-0.006352157465049199,-0.9374318804059709,-0.3672035859555614,-0.007888713851571083,0.016446325927972794,0.0037482690531760454,0.714809000492096,0.4882200062274933,0.2800399959087372,0.4150480031967163
2021-01-14 15:00:41.150,-0.004886275119319254,-0.9376762351211235,-0.3672035859555614,-0.007888713851571083,0.015835460275411606,0.00496999965980649,0.7148069739341736,0.48824799060821533,0.28001201152801514,0.41503700613975525
2021-01-14 15:00:41.160,-0.005619216482250057,-0.9359660440561722,-0.3667149495105354,-0.004834387917071581,0.015224593691527843,0.008024326525628567,0.7148039937019348,0.4882729947566986,0.27998900413513184,0.41502800583839417
2021-01-14 15:00:41.170,-0.005863530143183105,-0.931079728262765,-0.3664706434522356,-0.004223522264510393,0.014002864249050617,0.010467786341905594,0.7148029804229736,0.4882949888706207,0.2799699902534485,0.4150170087814331
2021-01-14 15:00:41.180,-0.006352157465049199,-0.9308353735476124,-0.3669592555688352,-0.0030017916578799486,0.012781133875250816,0.010467786341905594,0.7148029804229736,0.48831599950790405,0.2799519896507263,0.41500499844551086
2021-01-14 15:00:41.190,-0.009039609255839366,-0.931079728262765,-0.3652490645038838,-0.0030017916578799486,0.012781133875250816,0.00985692162066698,0.7147740125656128,0.4883140027523041,0.2799459993839264,0.4150620102882385
2021-01-14 15:00:41.200,-0.006352157465049199,-0.9315683403793645,-0.3664706434522356,-0.004223522264510393,0.010948537848889828,0.009246056899428368,0.7147499918937683,0.48830899596214294,0.27994000911712646,0.4151119887828827
2021-01-14 15:00:41.210,-0.0102611775605046,-0.9318126950945173,-0.3667149495105354,-0.0060561178252100945,0.009115941822528839,0.007413460873067379,0.7147380113601685,0.48830801248550415,0.27991899847984314,0.4151490032672882
2021-01-14 15:00:41.220,-0.0102611775605046,-0.9315683403793645,-0.3703796620271644,-0.0060561178252100945,0.009726807475090027,0.00496999965980649,0.7147380113601685,0.48830100893974304,0.2798919975757599,0.4151740074157715
2021-01-14 15:00:41.230,-0.007818040190910806,-0.933034274042869,-0.36158435198725486,-0.004834387917071581,0.003618154674768448,-5.277875461615622E-4,0.7147709727287292,0.4882819950580597,0.2798300087451935,0.4151819944381714
2021-01-14 15:00:41.240,-0.007573726529977759,-0.9323013072111168,-0.3667149495105354,-0.004834387917071581,0.003007289720699191,-0.0023603832814842463,0.7147970199584961,0.48828598856925964,0.2797960042953491,0.4151569902896881
2021-01-14 15:00:41.250,-0.0051305887802523,-0.931079728262765,-0.36109573987065524,-0.004834387917071581,0.003618154674768448,-0.004192979075014591,0.7148249745368958,0.48828598856925964,0.2797670066356659,0.4151279926300049
2021-01-14 15:00:41.260,-0.008795294834642994,-0.9318126950945173,-0.3784420052353216,-0.0017800614004954696,0.002396424300968647,-0.005414709448814392,0.7148540019989014,0.48828399181365967,0.2797490060329437,0.41509199142456055
2021-01-14 15:00:41.270,-0.008550981173709947,-0.9325455646125637,-0.37184554703381595,-5.58330852072686E-4,0.0017855591140687466,-0.005414709448814392,0.7148839831352234,0.48828500509262085,0.27973198890686035,0.41505101323127747
2021-01-14 15:00:41.280,-0.006596471125982245,-0.931079728262765,-0.39578829492841444,-5.58330852072686E-4,0.0017855591140687466,-0.005414709448814392,0.7148839831352234,0.48828500509262085,0.27973198890686035,0.41505101323127747
2021-01-14 15:00:41.290,-0.0012215687798298135,-0.928880925081214,-0.3554765059023487,-5.58330852072686E-4,-4.703662489191629E-5,-0.004192979075014591,0.7149479985237122,0.48827698826789856,0.27968499064445496,0.41498100757598877
2021-01-14 15:00:41.300,-0.003909020095455403,-0.9315683403793645,-0.36842514057548675,5.253441122476943E-5,-4.703662489191629E-5,-0.003582113655284047,0.7149789929389954,0.4882740080356598,0.27966299653053284,0.41494500637054443
2021-01-14 15:00:41.310,-0.003909020095455403,-0.9347444651078204,-0.34521533518421404,0.001274264883249998,-6.579018663614988E-4,-0.0011386527912691236,0.7150059938430786,0.4882729947566986,0.27964499592781067,0.41491198539733887
2021-01-14 15:00:41.320,-0.009283922916772413,-0.9366989135742186,-0.3320223944527762,-5.58330852072686E-4,5.638286238536239E-4,-0.0017495180945843458,0.7150170207023621,0.4882949888706207,0.27963098883628845,0.4148769974708557
2021-01-14 15:00:41.330,-0.012704314930098397,-0.9347444651078204,-0.3574310273540263,-0.0011691960971802473,-4.703662489191629E-5,-0.0023603832814842463,0.7150030136108398,0.48833099007606506,0.2796419858932495,0.41485199332237244
2021-01-14 15:00:41.340,-0.0017101963867946547,-0.933034274042869,-0.35205612377244594,-0.0011691960971802473,-0.0018796323565766215,-0.0017495180945843458,0.7149739861488342,0.4883739948272705,0.2796519994735718,0.41484498977661133
2021-01-14 15:00:41.350,-0.009039609255839366,-0.9366989135742186,-0.41044712066650385,-5.58330852072686E-4,-0.002490497659891844,-0.004192979075014591,0.7149419784545898,0.4884200096130371,0.2796710133552551,0.4148319959640503
2021-01-14 15:00:41.360,-0.0073294128690447125,-0.9354773346258669,-0.38039652668699925,-0.0011691960971802473,-0.0037122280336916447,-0.004803844261914492,0.7149379849433899,0.4884270131587982,0.2796669900417328,0.41483500599861145
2021-01-14 15:00:41.370,-0.006107843804116151,-0.93523307722442,-0.364516122000558,-0.0017800614004954696,-0.004323093220591545,-0.005414709448814392,0.7149450182914734,0.48843100666999817,0.2796500027179718,0.41482898592948914
2021-01-14 15:00:41.380,-0.010016863899571554,-0.9337671435609155,-0.364027485555532,-5.58330852072686E-4,-0.004323093220591545,-0.005414709448814392,0.7149440050125122,0.48843300342559814,0.2796440124511719,0.4148330092430115
2021-01-14 15:00:41.390,-0.009283922916772413,-0.931079728262765,-0.37086827414376394,-5.58330852072686E-4,-0.004323093220591545,-0.005414709448814392,0.7149440050125122,0.48843300342559814,0.2796440124511719,0.4148330092430115
2021-01-14 15:00:41.400,-0.012215687608232302,-0.9308353735476124,-0.380152196300273,-0.0011691960971802473,-0.0049339584074914455,-0.004803844261914492,0.7149400115013123,0.4884380102157593,0.27963700890541077,0.4148379862308502
2021-01-14 15:00:41.410,-0.007085099208111665,-0.9296137945992605,-0.3733114077120411,-0.0017800614004954696,-0.004323093220591545,-0.003582113655284047,0.7149369716644287,0.48844200372695923,0.2796269953250885,0.41484498977661133
2021-01-14 15:00:41.420,-0.007085099208111665,-0.9261934124693578,-0.37697612022867005,-0.0011691960971802473,-0.005544823594391346,-0.0023603832814842463,0.7149569988250732,0.48844200372695923,0.2795740067958832,0.4148469865322113
2021-01-14 15:00:41.430,-0.0073294128690447125,-0.9281479582494618,-0.3669592555688352,6.633996381424367E-4,-0.006766554433852434,-0.0011386527912691236,0.7149720191955566,0.48843398690223694,0.27954399585723877,0.41484999656677246
2021-01-14 15:00:41.440,-0.005374902821317011,-0.922773030339455,-0.3667149495105354,6.633996381424367E-4,-0.0031013628467917442,-0.0017495180945843458,0.7149890065193176,0.488429993391037,0.27951300144195557,0.4148469865322113
2021-01-14 15:00:41.450,-0.005863530143183105,-0.9225287729380082,-0.364027485555532,0.003106860676780343,-4.703662489191629E-5,-5.277875461615622E-4,0.7150030136108398,0.48842400312423706,0.2794879972934723,0.4148469865322113
2021-01-14 15:00:41.460,-0.005619216482250057,-0.9222844182228555,-0.3679365284588872,0.003717726096510887,-0.001268767169676721,-5.277875461615622E-4,0.7150160074234009,0.4884200096130371,0.279464989900589,0.41484498977661133
2021-01-14 15:00:41.470,-0.005863530143183105,-0.9225287729380082,-0.36842514057548675,0.0018851301865652204,-0.0018796323565766215,-5.277875461615622E-4,0.7150359749794006,0.4884189963340759,0.27943500876426697,0.4148310124874115
2021-01-14 15:00:41.480,-0.005374902821317011,-0.9247275761195591,-0.37111260453049016,-0.002390926703810692,-0.0049339584074914455,-0.0017495180945843458,0.715054988861084,0.48841598629951477,0.2794080078601837,0.41481998562812805
2021-01-14 15:00:41.490,-0.005619216482250057,-0.9276593461328623,-0.36842514057548675,-0.0017800614004954696,-0.006766554433852434,-5.277875461615622E-4,0.7150760293006897,0.48840999603271484,0.27938100695610046,0.414808988571167
2021-01-14 15:00:41.500,-0.006840785547178619,-0.9320569524959641,-0.37062396808546416,-0.004223522264510393,-0.007377419620752335,-0.0017495180945843458,0.7150970101356506,0.4884049892425537,0.279354989528656,0.41479599475860596
2021-01-14 15:00:41.510,-0.006107843804116151,-0.9347444651078204,-0.36866944663378654,-0.004223522264510393,-0.007377419620752335,-0.0017495180945843458,0.7150970101356506,0.4884049892425537,0.279354989528656,0.41479599475860596
2021-01-14 15:00:41.520,-0.006596471125982245,-0.9347444651078204,-0.36866944663378654,-0.005445253103971481,-0.007377419620752335,-0.0011386527912691236,0.7151169776916504,0.48840099573135376,0.27932900190353394,0.4147840142250061
2021-01-14 15:00:41.530,-0.005863530143183105,-0.9349887225092673,-0.37062396808546416,-0.004834387917071581,-0.009820881299674511,-0.0017495180945843458,0.7151349782943726,0.4883989989757538,0.27930599451065063,0.4147709906101227
2021-01-14 15:00:41.540,-0.006107843804116151,-0.9318126950945173,-0.37135691058878995,-0.005445253103971481,-0.013486071489751339,-0.0017495180945843458,0.7151520252227783,0.4883989989757538,0.27928298711776733,0.41475600004196167
2021-01-14 15:00:41.550,-0.0034203927735893093,-0.9286365703660614,-0.37086827414376394,-0.004834387917071581,-0.015318667516112328,-0.0023603832814842463,0.7151690125465393,0.48840001225471497,0.2792620062828064,0.41474100947380066
2021-01-14 15:00:41.560,-0.0051305887802523,-0.9276593461328623,-0.37111260453049016,-0.0017800614004954696,-0.015929533168673515,-0.003582113655284047,0.7151859998703003,0.48840001225471497,0.2792400121688843,0.41472598910331726
2021-01-14 15:00:41.570,-0.00415333375638845,-0.9264377671845104,-0.37404435021536686,0.002495995257049799,-0.012264341115951538,-0.005414709448814392,0.7152249813079834,0.48839300870895386,0.2791979908943176,0.41469499468803406
2021-01-14 15:00:41.580,-0.006107843804116151,-0.9247275761195591,-0.3730671016537413,0.002495995257049799,-0.012264341115951538,-0.005414709448814392,0.7152249813079834,0.48839300870895386,0.2791979908943176,0.41469499468803406
2021-01-14 15:00:41.590,-0.0019545100477277016,-0.9271707340162627,-0.36964671952383854,0.003717726096510887,-0.011042610742151737,-0.005414709448814392,0.7152479887008667,0.48838499188423157,0.2791759967803955,0.41468098759651184
2021-01-14 15:00:41.600,-0.0012215687798298135,-0.9266821218996631,-0.3716012166470897,0.004939456470310688,-0.011653476394712925,-0.006636439822614193,0.7152739763259888,0.4883750081062317,0.27914899587631226,0.41466400027275085
2021-01-14 15:00:41.610,-0.0036647064345223562,-0.9261934124693578,-0.368180834517187,6.633996381424367E-4,-0.01715126447379589,-0.009690766222774982,0.7153329849243164,0.48835399746894836,0.27910101413726807,0.4146209955215454
2021-01-14 15:00:41.620,-0.004886275119319254,-0.92692637930111,-0.3694023891371123,6.633996381424367E-4,-0.01715126447379589,-0.009690766222774982,0.7153329849243164,0.48835399746894836,0.27910101413726807,0.4146209955215454
2021-01-14 15:00:41.630,-0.005863530143183105,-0.9283923129646144,-0.37111260453049016,0.0018851301865652204,-0.01776212826371193,-0.01030163187533617,0.715395987033844,0.48836201429367065,0.2790519893169403,0.4145340025424957
2021-01-14 15:00:41.640,-0.007085099208111665,-0.9281479582494618,-0.36842514057548675,-0.0011691960971802473,-0.016540396958589554,-0.011523362249135971,0.7154579758644104,0.48837700486183167,0.2790060043334961,0.4144429862499237
2021-01-14 15:00:41.650,-0.008795294834642994,-0.9259491550679109,-0.36866944663378654,-0.0030017916578799486,-0.013486071489751339,-0.012134226970374584,0.7155200242996216,0.48837199807167053,0.2789669930934906,0.4143660068511963
2021-01-14 15:00:41.660,-0.008795294834642994,-0.9276593461328623,-0.36769219807216097,-0.005445253103971481,-0.011042610742151737,-0.012134226970374584,0.715582013130188,0.4883570075035095,0.2789359986782074,0.41429901123046875
2021-01-14 15:00:41.670,-0.008795294834642994,-0.9264377671845104,-0.3659820070072096,-0.004834387917071581,-0.009210015647113323,-0.012134226970374584,0.7156440019607544,0.48833099007606506,0.278905987739563,0.4142419993877411
2021-01-14 15:00:41.680,-0.007085099208111665,-0.9271707340162627,-0.3672035859555614,-0.004223522264510393,-0.006766554433852434,-0.012134226970374584,0.7156999707221985,0.4883059859275818,0.2788819968700409,0.41418901085853577
2021-01-14 15:00:41.690,-0.0051305887802523,-0.9271707340162627,-0.3667149495105354,-0.004223522264510393,-0.0049339584074914455,-0.011523362249135971,0.7157490253448486,0.4882819950580597,0.2788679897785187,0.41414299607276917
2021-01-14 15:00:41.700,-0.00415333375638845,-0.9281479582494618,-0.3672035859555614,-0.004834387917071581,-0.0049339584074914455,-0.007247305475175381,0.7158290147781372,0.4882270097732544,0.2788560092449188,0.4140779972076416
2021-01-14 15:00:41.710,-0.0034203927735893093,-0.92692637930111,-0.3703796620271644,-0.0060561178252100945,-0.004323093220591545,-0.007247305475175381,0.7158640027046204,0.48820701241493225,0.27883899211883545,0.41405200958251953
2021-01-14 15:00:41.720,-0.006107843804116151,-0.9274149914177096,-0.3701353316404381,-0.004834387917071581,-0.0031013628467917442,-0.004803844261914492,0.7158970236778259,0.48817500472068787,0.27883100509643555,0.4140399992465973
2021-01-14 15:00:41.730,-0.007818040190910806,-0.9323013072111168,-0.3698910255821383,-0.002390926703810692,0.0011746938107535243,-0.004192979075014591,0.7159259915351868,0.48815199732780457,0.27881500124931335,0.4140259921550751
2021-01-14 15:00:41.740,-0.008062353851843852,-0.9342557556775151,-0.37184554703381595,-0.0011691960971802473,0.002396424300968647,-0.0017495180945843458,0.7159420251846313,0.4881319999694824,0.27881601452827454,0.4140230119228363
2021-01-14 15:00:41.750,-0.008550981173709947,-0.9379204925225705,-0.3703796620271644,5.253441122476943E-5,0.003618154674768448,-0.0023603832814842463,0.7159469723701477,0.4881170094013214,0.2788180112838745,0.414029985666275
2021-01-14 15:00:41.760,-0.008795294834642994,-0.9396306835875219,-0.36769219807216097,-0.0011691960971802473,0.006061615888029337,8.30776771181263E-5,0.7159469723701477,0.48810601234436035,0.2788270115852356,0.41403698921203613
2021-01-14 15:00:41.770,-0.006596471125982245,-0.9432954204325773,-0.36842514057548675,-0.004223522264510393,0.008505076169967651,0.0019156733760610223,0.7159389853477478,0.48809200525283813,0.2788369953632355,0.41405999660491943
2021-01-14 15:00:41.781,-0.007818040190910806,-0.9423181961993781,-0.36842514057548675,-0.004834387917071581,0.012170268222689629,0.003137403866276145,0.7159289717674255,0.48806899785995483,0.27884700894355774,0.41409799456596375
2021-01-14 15:00:41.791,-0.007573726529977759,-0.9440283872643295,-0.37111260453049016,-0.0036126570776104927,0.016446325927972794,0.003137403866276145,0.7159199714660645,0.4880470037460327,0.27885499596595764,0.4141330122947693
2021-01-14 15:00:41.801,-0.007085099208111665,-0.944516999380929,-0.3698910255821383,-0.004834387917071581,0.02072238177061081,0.00496999965980649,0.7159019708633423,0.48802098631858826,0.2788819968700409,0.4141770005226135
2021-01-14 15:00:41.811,-0.004886275119319254,-0.940363650419274,-0.36769219807216097,-0.004834387917071581,0.02072238177061081,0.00496999965980649,0.7159019708633423,0.48802098631858826,0.2788819968700409,0.4141770005226135
2021-01-14 15:00:41.821,-0.007573726529977759,-0.9374318804059709,-0.3672035859555614,-0.004223522264510393,0.02072238177061081,0.006191730033606291,0.7158820033073425,0.48798999190330505,0.2789109945297241,0.41422900557518005
2021-01-14 15:00:41.831,-0.0029317650715915524,-0.93523307722442,-0.368180834517187,-0.0060561178252100945,0.019500650465488434,0.00558086484670639,0.7158589959144592,0.48796600103378296,0.2789379954338074,0.4142780005931854
2021-01-14 15:00:41.841,-0.0026874514106585055,-0.9301025040295658,-0.37062396808546416,-0.006666983012109995,0.013391999527812004,0.00496999965980649,0.7158409953117371,0.48792099952697754,0.2789610028266907,0.41434600949287415
2021-01-14 15:00:41.851,-0.0026874514106585055,-0.92692637930111,-0.3698910255821383,-0.004834387917071581,0.012781133875250816,0.00496999965980649,0.715848982334137,0.48790299892425537,0.2789529860019684,0.4143590033054352
2021-01-14 15:00:41.861,-0.004886275119319254,-0.9244832214044064,-0.3679365284588872,-0.004223522264510393,0.013391999527812004,0.0037482690531760454,0.7158570289611816,0.48788899183273315,0.27894699573516846,0.4143669903278351
2021-01-14 15:00:41.871,-0.0051305887802523,-0.9232616424560546,-0.36891377702051276,-0.0017800614004954696,0.017057189717888832,0.004359134007245302,0.7158690094947815,0.487870991230011,0.2789430022239685,0.41436898708343506
2021-01-14 15:00:41.881,-0.004641961458386207,-0.9244832214044064,-0.3694023891371123,-0.0017800614004954696,0.018889786675572395,0.0037482690531760454,0.7158700227737427,0.4878549873828888,0.27895501255989075,0.4143790006637573
2021-01-14 15:00:41.891,-0.006107843804116151,-0.9254605429513113,-0.3672035859555614,-0.0017800614004954696,0.019500650465488434,0.006191730033606291,0.7158700227737427,0.48783499002456665,0.2789750099182129,0.4143899977207184
2021-01-14 15:00:41.901,-0.004397647417321497,-0.9298581493144132,-0.3664706434522356,-0.002390926703810692,0.018889786675572395,0.007413460873067379,0.7158660292625427,0.48781800270080566,0.2789889872074127,0.41440701484680176
2021-01-14 15:00:41.911,-0.004641961458386207,-0.9298581493144132,-0.364516122000558,-0.002390926703810692,0.018889786675572395,0.007413460873067379,0.7158660292625427,0.48781800270080566,0.2789889872074127,0.41440701484680176
2021-01-14 15:00:41.921,-0.006840785547178619,-0.9354773346258669,-0.36573770094890984,-0.002390926703810692,0.018278921023011208,0.006802595220506191,0.715861976146698,0.48780301213264465,0.27899500727653503,0.4144270122051239
2021-01-14 15:00:41.931,-0.006596471125982245,-0.9364546561727718,-0.36549337056218356,-0.0036126570776104927,0.017057189717888832,0.006191730033606291,0.7158640027046204,0.48778900504112244,0.278997004032135,0.41443800926208496
2021-01-14 15:00:41.941,-0.0051305887802523,-0.9349887225092673,-0.3669592555688352,-0.0036126570776104927,0.017057189717888832,0.004359134007245302,0.7158669829368591,0.48777899146080017,0.27899599075317383,0.41444599628448486
2021-01-14 15:00:41.951,-0.003909020095455403,-0.9354773346258669,-0.36891377702051276,-0.0030017916578799486,0.015835460275411606,0.004359134007245302,0.7158730030059814,0.48777100443840027,0.2789979875087738,0.4144439995288849
2021-01-14 15:00:41.961,-0.00415333375638845,-0.9325455646125637,-0.37086827414376394,-0.002390926703810692,0.014002864249050617,0.003137403866276145,0.7158790230751038,0.4877690076828003,0.278997004032135,0.4144369959831238
2021-01-14 15:00:41.971,-0.0026874514106585055,-0.9323013072111168,-0.3701353316404381,-0.0017800614004954696,0.014613729901611805,0.0025265386793762445,0.7158870100975037,0.4877679944038391,0.278997004032135,0.41442400217056274
2021-01-14 15:00:41.981,-9.772550238638508E-4,-0.9308353735476124,-0.37257848953714173,-0.002390926703810692,0.012781133875250816,0.0019156733760610223,0.7158949971199036,0.48776501417160034,0.27900201082229614,0.4144099950790405
2021-01-14 15:00:41.991,-2.443137559659627E-4,-0.9318126950945173,-0.37111260453049016,-0.002390926703810692,0.010948537848889828,0.0019156733760610223,0.7159249782562256,0.48774999380111694,0.278999000787735,0.4143790006637573
2021-01-14 15:00:42.001,-9.772550238638508E-4,-0.9293695371978137,-0.37135691058878995,-0.0030017916578799486,0.009115941822528839,6.939428858458996E-4,0.7159450054168701,0.48774200677871704,0.27899599075317383,0.414355993270874
2021-01-14 15:00:42.011,2.443137559659627E-4,-0.9271707340162627,-0.3716012166470897,-0.0030017916578799486,0.009115941822528839,6.939428858458996E-4,0.7159450054168701,0.48774200677871704,0.27899599075317383,0.414355993270874
2021-01-14 15:00:42.021,0.0012215687798298135,-0.9252161882361587,-0.37184554703381595,-0.004223522264510393,0.004839885048568249,0.0025265386793762445,0.7160019874572754,0.4877139925956726,0.2789750099182129,0.4143039882183075
2021-01-14 15:00:42.031,-0.0014658825357957762,-0.9244832214044064,-0.37257848953714173,-0.004223522264510393,0.004839885048568249,0.003137403866276145,0.7160379886627197,0.4877009987831116,0.2789500057697296,0.4142740070819855
2021-01-14 15:00:42.041,-0.0036647064345223562,-0.9247275761195591,-0.37111260453049016,-0.004834387917071581,0.004229020327329636,0.0025265386793762445,0.7160739898681641,0.4876849949359894,0.27892300486564636,0.4142470061779022
2021-01-14 15:00:42.051,-0.0029317650715915524,-0.9257048003527583,-0.36915808307881254,-0.006666983012109995,0.004229020327329636,0.003137403866276145,0.7161160111427307,0.4876689910888672,0.278890997171402,0.414216011762619
2021-01-14 15:00:42.061,-0.005619216482250057,-0.9271707340162627,-0.3698910255821383,-0.0060561178252100945,0.002396424300968647,0.0025265386793762445,0.7161610126495361,0.48764801025390625,0.2788519859313965,0.41418999433517456
2021-01-14 15:00:42.071,-0.005374902821317011,-0.9301025040295658,-0.36891377702051276,-0.006666983012109995,0.0011746938107535243,0.0019156733760610223,0.7162050008773804,0.48763298988342285,0.2788090109825134,0.41415899991989136
2021-01-14 15:00:42.081,-0.006107843804116151,-0.9308353735476124,-0.36866944663378654,-0.004834387917071581,5.638286238536239E-4,0.0019156733760610223,0.7162520289421082,0.487621009349823,0.27876099944114685,0.4141240119934082
2021-01-14 15:00:42.091,-0.006352157465049199,-0.9318126950945173,-0.36964671952383854,-0.0036126570776104927,0.0011746938107535243,8.30776771181263E-5,0.71629399061203,0.4876199960708618,0.27871400117874146,0.4140860140323639
2021-01-14 15:00:42.101,-0.004886275119319254,-0.9320569524959641,-0.368180834517187,-0.0036126570776104927,0.0011746938107535243,8.30776771181263E-5,0.71629399061203,0.4876199960708618,0.27871400117874146,0.4140860140323639
2021-01-14 15:00:42.111,-0.0051305887802523,-0.933034274042869,-0.36842514057548675,-0.004223522264510393,0.0011746938107535243,-5.277875461615622E-4,0.7163299918174744,0.48762500286102295,0.27867498993873596,0.41404199600219727
2021-01-14 15:00:42.121,-0.00415333375638845,-0.9323013072111168,-0.37062396808546416,-0.0036126570776104927,0.0017855591140687466,-0.0011386527912691236,0.7163680195808411,0.48762500286102295,0.2786389887332916,0.4140009880065918
2021-01-14 15:00:42.131,-0.004641961458386207,-0.9305911161461654,-0.3698910255821383,-0.005445253103971481,0.0017855591140687466,-0.0017495180945843458,0.7163940072059631,0.4876430034637451,0.2786079943180084,0.4139550030231476
2021-01-14 15:00:42.141,-0.0051305887802523,-0.9303467614310128,-0.3735557380987673,-0.005445253103971481,5.638286238536239E-4,-0.0029712487012147903,0.7164170145988464,0.48765799403190613,0.27858200669288635,0.4139159917831421
2021-01-14 15:00:42.152,-0.006596471125982245,-0.9298581493144132,-0.3738000441570671,-0.004223522264510393,-4.703662489191629E-5,-0.0017495180945843458,0.7164369821548462,0.48767200112342834,0.27855798602104187,0.41388100385665894
2021-01-14 15:00:42.162,-0.003909020095455403,-0.928880925081214,-0.3735557380987673,-0.005445253103971481,-4.703662489191629E-5,-0.0029712487012147903,0.7164559960365295,0.4876849949359894,0.27853500843048096,0.41384801268577576
2021-01-14 15:00:42.172,-0.002443137559659627,-0.931079728262765,-0.3723341591504155,-5.58330852072686E-4,0.003618154674768448,-0.0017495180945843458,0.7164949774742126,0.48769599199295044,0.27848899364471436,0.4137980043888092
2021-01-14 15:00:42.182,-0.0019545100477277016,-0.9283923129646144,-0.3730671016537413,-5.58330852072686E-4,0.004229020327329636,-5.277875461615622E-4,0.7165129780769348,0.4876979887485504,0.2784709930419922,0.4137769937515259
2021-01-14 15:00:42.192,-0.0019545100477277016,-0.928880925081214,-0.3728227955954415,-5.58330852072686E-4,0.004229020327329636,-5.277875461615622E-4,0.7165129780769348,0.4876979887485504,0.2784709930419922,0.4137769937515259
2021-01-14 15:00:42.202,-0.0014658825357957762,-0.928880925081214,-0.37404435021536686,-0.0017800614004954696,0.003007289720699191,8.30776771181263E-5,0.7165349721908569,0.4876990020275116,0.27845001220703125,0.4137519896030426
2021-01-14 15:00:42.212,-0.0031760787325245993,-0.9315683403793645,-0.37673181417037027,-0.0030017916578799486,0.0017855591140687466,0.0013048081891611218,0.7165579795837402,0.4876979887485504,0.2784309983253479,0.4137269854545593
2021-01-14 15:00:42.222,-0.004641961458386207,-0.9359660440561722,-0.3735557380987673,-0.004834387917071581,0.0011746938107535243,0.0013048081891611218,0.7166020274162292,0.4876840114593506,0.2784000039100647,0.413688987493515
2021-01-14 15:00:42.233,-0.006352157465049199,-0.9376762351211235,-0.37208985309211573,-0.004834387917071581,0.0011746938107535243,0.0013048081891611218,0.7166020274162292,0.4876840114593506,0.2784000039100647,0.413688987493515
2021-01-14 15:00:42.243,-0.005374902821317011,-0.9388977167557696,-0.3735557380987673,-0.004834387917071581,0.004839885048568249,0.0019156733760610223,0.7166230082511902,0.48767799139022827,0.2783829867839813,0.41367000341415405
2021-01-14 15:00:42.253,-0.0029317650715915524,-0.9366989135742186,-0.3716012166470897,-0.006666983012109995,0.006061615888029337,0.0019156733760610223,0.7166420221328735,0.4876750111579895,0.27836599946022034,0.4136520028114319
2021-01-14 15:00:42.263,-0.0019545100477277016,-0.9335228861594687,-0.36891377702051276,-0.007888713851571083,0.004839885048568249,0.0013048081891611218,0.7166590094566345,0.4876750111579895,0.27834901213645935,0.4136340022087097
2021-01-14 15:00:42.273,-0.0017101963867946547,-0.9320569524959641,-0.37135691058878995,-0.009721309877932072,5.638286238536239E-4,0.0013048081891611218,0.7166759967803955,0.4876759946346283,0.27833399176597595,0.4136140048503876
2021-01-14 15:00:42.283,-2.443137559659627E-4,-0.9313240829779177,-0.3742886806020931,-0.010332174599170685,-0.0031013628467917442,0.0019156733760610223,0.7166910171508789,0.48767799139022827,0.2783220112323761,0.41359299421310425
2021-01-14 15:00:42.294,-0.00415333375638845,-0.9303467614310128,-0.3730671016537413,-0.010332174599170685,-0.0037122280336916447,0.003137403866276145,0.7167149782180786,0.48767200112342834,0.27831101417541504,0.413565993309021
2021-01-14 15:00:42.304,-0.0034203927735893093,-0.9274149914177096,-0.37453298666039286,-0.007888713851571083,-0.0018796323565766215,0.003137403866276145,0.7167310118675232,0.4876689910888672,0.27830201387405396,0.41354799270629883
2021-01-14 15:00:42.314,-0.0051305887802523,-0.9261934124693578,-0.3759988716670445,-0.004834387917071581,0.0011746938107535243,0.003137403866276145,0.7167490124702454,0.48766401410102844,0.2782909870147705,0.41353100538253784
2021-01-14 15:00:42.324,-0.006840785547178619,-0.9261934124693578,-0.3759988716670445,-0.002390926703810692,0.002396424300968647,0.0025265386793762445,0.7167649865150452,0.4876540005207062,0.27827998995780945,0.4135209918022156
2021-01-14 15:00:42.334,-0.007818040190910806,-0.9274149914177096,-0.3752659291637187,-5.58330852072686E-4,0.004229020327329636,-5.277875461615622E-4,0.7167829871177673,0.48764199018478394,0.27826499938964844,0.41351398825645447
2021-01-14 15:00:42.344,-0.00952823657770546,-0.9259491550679109,-0.3755102352220185,0.001274264883249998,0.005450750235468149,-5.277875461615622E-4,0.716804027557373,0.48763200640678406,0.2782430052757263,0.4135049879550934
2021-01-14 15:00:42.355,-0.007085099208111665,-0.9274149914177096,-0.3759988716670445,0.003106860676780343,0.006672481074929237,-0.0017495180945843458,0.716825008392334,0.4876219928264618,0.27821600437164307,0.41349899768829346
2021-01-14 15:00:42.365,-0.0051305887802523,-0.9271707340162627,-0.37111260453049016,0.0018851301865652204,0.006061615888029337,-0.0017495180945843458,0.7168480157852173,0.4876120090484619,0.27818500995635986,0.4134899973869324
2021-01-14 15:00:42.375,-0.005863530143183105,-0.9264377671845104,-0.37208985309211573,0.001274264883249998,0.005450750235468149,-0.0017495180945843458,0.7168710231781006,0.4876039922237396,0.27815601229667664,0.4134809970855713
2021-01-14 15:00:42.385,-0.0021988237086607485,-0.9254605429513113,-0.3723341591504155,-0.0011691960971802473,0.006061615888029337,-0.0017495180945843458,0.7168949842453003,0.4875999987125397,0.27812299132347107,0.4134649932384491
2021-01-14 15:00:42.395,-0.0029317650715915524,-0.9257048003527583,-0.3728227955954415,-0.004834387917071581,0.004839885048568249,-0.0011386527912691236,0.7169209718704224,0.48759499192237854,0.27809199690818787,0.41344699263572693
2021-01-14 15:00:42.405,-0.00415333375638845,-0.9271707340162627,-0.3755102352220185,-0.007277848664671183,0.004229020327329636,8.30776771181263E-5,0.7169449925422668,0.48758798837661743,0.2780660092830658,0.41343098878860474
2021-01-14 15:00:42.415,-0.0026874514106585055,-0.9257048003527583,-0.3742886806020931,-0.004834387917071581,0.003007289720699191,0.0013048081891611218,0.7169730067253113,0.4875810146331787,0.27803701162338257,0.4134120047092438
2021-01-14 15:00:42.426,-0.006840785547178619,-0.9264377671845104,-0.3747772927186927,-0.004834387917071581,0.003007289720699191,0.0013048081891611218,0.7169730067253113,0.4875810146331787,0.27803701162338257,0.4134120047092438
2021-01-14 15:00:42.436,-0.0073294128690447125,-0.9276593461328623,-0.3738000441570671,-0.0030017916578799486,0.003007289720699191,6.939428858458996E-4,0.7170010209083557,0.4875720143318176,0.27800801396369934,0.4133929908275604
2021-01-14 15:00:42.446,-0.009772550238638508,-0.9254605429513113,-0.3735557380987673,6.633996381424367E-4,0.004839885048568249,0.0013048081891611218,0.7170289754867554,0.48756301403045654,0.27797800302505493,0.41337499022483826
2021-01-14 15:00:42.456,-0.010016863899571554,-0.9271707340162627,-0.3750216231054189,0.001274264883249998,0.006061615888029337,0.0019156733760610223,0.7170559763908386,0.48755601048469543,0.27794599533081055,0.41335800290107727
2021-01-14 15:00:42.466,-0.0073294128690447125,-0.924971833521006,-0.3733114077120411,0.002495995257049799,0.007894211448729038,0.0019156733760610223,0.7170829772949219,0.4875510036945343,0.2779090106487274,0.4133409857749939
2021-01-14 15:00:42.476,-0.007573726529977759,-0.9247275761195591,-0.37257848953714173,0.003106860676780343,0.007894211448729038,0.0019156733760610223,0.7171090245246887,0.48754799365997314,0.27786898612976074,0.4133259952068329
2021-01-14 15:00:42.486,-0.005863530143183105,-0.9232616424560546,-0.37208985309211573,0.002495995257049799,0.009115941822528839,0.0025265386793762445,0.7171350121498108,0.4875450134277344,0.27782899141311646,0.41331198811531067
2021-01-14 15:00:42.496,-0.0034203927735893093,-0.9259491550679109,-0.3759988716670445,0.002495995257049799,0.007894211448729038,0.0037482690531760454,0.717162013053894,0.4875440001487732,0.277785986661911,0.4132950007915497
2021-01-14 15:00:42.506,-0.0051305887802523,-0.924971833521006,-0.3764875081120705,-5.58330852072686E-4,0.006061615888029337,0.006191730033606291,0.7172179818153381,0.48754000663757324,0.27770400047302246,0.41325700283050537
2021-01-14 15:00:42.516,-0.004397647417321497,-0.9257048003527583,-0.3735557380987673,-5.58330852072686E-4,0.006061615888029337,0.006191730033606291,0.7172179818153381,0.48754000663757324,0.27770400047302246,0.41325700283050537
2021-01-14 15:00:42.527,-0.006596471125982245,-0.9281479582494618,-0.3723341591504155,-0.0011691960971802473,0.005450750235468149,0.00558086484670639,0.7172510027885437,0.4875349998474121,0.2776620090007782,0.41323399543762207
2021-01-14 15:00:42.537,-0.006596471125982245,-0.9274149914177096,-0.3747772927186927,-5.58330852072686E-4,0.006061615888029337,0.00496999965980649,0.7172840237617493,0.48753100633621216,0.27762100100517273,0.4132100045681
2021-01-14 15:00:42.547,-0.006352157465049199,-0.928880925081214,-0.37624317772534427,5.253441122476943E-5,0.009115941822528839,0.00496999965980649,0.7173470258712769,0.487529993057251,0.277538001537323,0.41315799951553345
2021-01-14 15:00:42.557,-0.005619216482250057,-0.929125182482661,-0.3735557380987673,-5.58330852072686E-4,0.008505076169967651,0.004359134007245302,0.7173789739608765,0.487527996301651,0.27749499678611755,0.4131320118904114
2021-01-14 15:00:42.567,-0.0051305887802523,-0.9261934124693578,-0.3752659291637187,-5.58330852072686E-4,0.008505076169967651,0.0037482690531760454,0.7174080014228821,0.4875270128250122,0.27745699882507324,0.4131090044975281
2021-01-14 15:00:42.577,-0.0034203927735893093,-0.92692637930111,-0.37673181417037027,5.253441122476943E-5,0.007894211448729038,0.004359134007245302,0.7174379825592041,0.48752498626708984,0.27741798758506775,0.413085013628006
2021-01-14 15:00:42.587,-0.0051305887802523,-0.92692637930111,-0.3747772927186927,-0.0011691960971802473,0.005450750235468149,0.00496999965980649,0.7174710035324097,0.4875209927558899,0.27737900614738464,0.4130589962005615
2021-01-14 15:00:42.597,-9.772550238638508E-4,-0.9301025040295658,-0.3759988716670445,-0.0011691960971802473,0.005450750235468149,0.004359134007245302,0.717503011226654,0.48751699924468994,0.27734100818634033,0.41303300857543945
2021-01-14 15:00:42.607,-0.004886275119319254,-0.9301025040295658,-0.37746475667369606,-0.0011691960971802473,0.007283346261829138,0.004359134007245302,0.7175359725952148,0.4875119924545288,0.27730700373649597,0.413004994392395
2021-01-14 15:00:42.617,-0.0029317650715915524,-0.9315683403793645,-0.3757545656087447,5.253441122476943E-5,0.009726807475090027,0.0037482690531760454,0.7175689935684204,0.4875049889087677,0.2772729992866516,0.41297999024391174
2021-01-14 15:00:42.627,-0.006840785547178619,-0.9327899193277164,-0.3733114077120411,5.253441122476943E-5,0.011559403501451015,0.003137403866276145,0.717602014541626,0.4874989986419678,0.27723899483680725,0.4129509925842285
2021-01-14 15:00:42.637,-0.0073294128690447125,-0.9340114982760682,-0.37453298666039286,6.633996381424367E-4,0.012781133875250816,0.0037482690531760454,0.7176300287246704,0.4874959886074066,0.27720901370048523,0.41292598843574524
2021-01-14 15:00:42.647,-0.005619216482250057,-0.9364546561727718,-0.3752659291637187,5.253441122476943E-5,0.012170268222689629,0.0019156733760610223,0.7176579833030701,0.4874959886074066,0.27717700600624084,0.412898987531662
2021-01-14 15:00:42.657,-0.005619216482250057,-0.9366989135742186,-0.3757545656087447,-0.0011691960971802473,0.012170268222689629,0.003137403866276145,0.7176839709281921,0.4874989986419678,0.27714499831199646,0.41287198662757874
2021-01-14 15:00:42.667,-0.0021988237086607485,-0.9362103014576191,-0.37624317772534427,-0.0017800614004954696,0.008505076169967651,0.0025265386793762445,0.7177079916000366,0.48750200867652893,0.27711600065231323,0.41284701228141785
2021-01-14 15:00:42.677,-0.0012215687798298135,-0.9337671435609155,-0.3752659291637187,-0.0017800614004954696,0.008505076169967651,0.0025265386793762445,0.7177079916000366,0.48750200867652893,0.27711600065231323,0.41284701228141785
2021-01-14 15:00:42.687,2.443137559659627E-4,-0.9315683403793645,-0.3752659291637187,-0.0011691960971802473,0.006672481074929237,0.0025265386793762445,0.7177309989929199,0.4875029921531677,0.27709001302719116,0.41282200813293457
2021-01-14 15:00:42.697,-9.772550238638508E-4,-0.9301025040295658,-0.3738000441570671,-0.0011691960971802473,0.006061615888029337,0.0025265386793762445,0.7177760004997253,0.4874989986419678,0.27705198526382446,0.4127750098705292
2021-01-14 15:00:42.707,-0.0021988237086607485,-0.9283923129646144,-0.3733114077120411,6.633996381424367E-4,0.005450750235468149,0.0025265386793762445,0.7177979946136475,0.4874950051307678,0.27703800797462463,0.4127500057220459
2021-01-14 15:00:42.717,-0.002443137559659627,-0.9266821218996631,-0.3733114077120411,5.253441122476943E-5,0.003618154674768448,0.0013048081891611218,0.7178220152854919,0.48749199509620667,0.27702200412750244,0.41272300481796265
2021-01-14 15:00:42.727,-0.005619216482250057,-0.9239946092878069,-0.37184554703381595,5.253441122476943E-5,0.003618154674768448,0.0013048081891611218,0.7178220152854919,0.48749199509620667,0.27702200412750244,0.41272300481796265
2021-01-14 15:00:42.737,-0.003909020095455403,-0.9242389640029595,-0.3723341591504155,0.001274264883249998,5.638286238536239E-4,0.0019156733760610223,0.7178429961204529,0.48748600482940674,0.2770099937915802,0.4127010107040405
2021-01-14 15:00:42.747,-0.00415333375638845,-0.9232616424560546,-0.37135691058878995,0.002495995257049799,-0.001268767169676721,0.0019156733760610223,0.717864990234375,0.4874829947948456,0.276993989944458,0.41267699003219604
2021-01-14 15:00:42.757,-0.0031760787325245993,-0.9210628392745037,-0.37257848953714173,0.0018851301865652204,-0.001268767169676721,6.939428858458996E-4,0.7178859710693359,0.4874800145626068,0.2769779860973358,0.41265401244163513
2021-01-14 15:00:42.767,-0.0051305887802523,-0.9242389640029595,-0.3728227955954415,0.002495995257049799,-6.579018663614988E-4,8.30776771181263E-5,0.7179059982299805,0.48747700452804565,0.2769629955291748,0.4126339852809906
2021-01-14 15:00:42.777,-0.0019545100477277016,-0.9239946092878069,-0.3730671016537413,0.002495995257049799,-6.579018663614988E-4,0.0013048081891611218,0.717926025390625,0.4874719977378845,0.2769480049610138,0.41261500120162964
2021-01-14 15:00:42.787,-0.003909020095455403,-0.9239946092878069,-0.37111260453049016,0.003106860676780343,-6.579018663614988E-4,6.939428858458996E-4,0.7179409861564636,0.4874640107154846,0.27693799138069153,0.4126040041446686
2021-01-14 15:00:42.797,-0.0026874514106585055,-0.9264377671845104,-0.37208985309211573,0.001274264883249998,-0.0018796323565766215,6.939428858458996E-4,0.717960000038147,0.4874570071697235,0.2769249975681305,0.41258901357650757
2021-01-14 15:00:42.807,-0.003909020095455403,-0.9296137945992605,-0.36964671952383854,0.0018851301865652204,-0.0031013628467917442,0.0013048081891611218,0.7179780006408691,0.4874509871006012,0.27691298723220825,0.4125730097293854
2021-01-14 15:00:42.817,-0.005863530143183105,-0.931079728262765,-0.3698910255821383,0.0018851301865652204,-0.0031013628467917442,0.0013048081891611218,0.7179930210113525,0.4874440133571625,0.27690500020980835,0.41256099939346313
2021-01-14 15:00:42.827,-0.007085099208111665,-0.9313240829779177,-0.3698910255821383,6.633996381424367E-4,-0.002490497659891844,0.0013048081891611218,0.7180050015449524,0.48743999004364014,0.27689701318740845,0.4125489890575409
2021-01-14 15:00:42.837,-0.006596471125982245,-0.9340114982760682,-0.37135691058878995,0.0018851301865652204,-0.0031013628467917442,0.0013048081891611218,0.7180179953575134,0.4874419867992401,0.2768869996070862,0.4125320017337799
2021-01-14 15:00:42.847,-0.0031760787325245993,-0.9332785314443159,-0.3701353316404381,0.003106860676780343,-0.0037122280336916447,8.30776771181263E-5,0.7180370092391968,0.48745501041412354,0.2768639922142029,0.41249901056289673
2021-01-14 15:00:42.857,-0.0031760787325245993,-0.9318126950945173,-0.37404435021536686,0.0018851301865652204,-0.0031013628467917442,0.0013048081891611218,0.718047022819519,0.48746100068092346,0.2768529951572418,0.41248199343681335
2021-01-14 15:00:42.867,-0.0031760787325245993,-0.9315683403793645,-0.37966358418367346,0.003717726096510887,-0.0037122280336916447,6.939428858458996E-4,0.718047022819519,0.48746100068092346,0.2768529951572418,0.41248199343681335
2021-01-14 15:00:42.877,-0.0051305887802523,-0.9296137945992605,-0.3786863112936214,0.0055503216572105885,-0.007377419620752335,0.0013048081891611218,0.718047022819519,0.48746100068092346,0.2768529951572418,0.41248199343681335
2021-01-14 15:00:42.887,-0.0051305887802523,-0.9320569524959641,-0.38039652668699925,0.007993782870471478,-0.004323093220591545,8.30776771181263E-5,0.718051016330719,0.48745399713516235,0.27684998512268066,0.41248399019241333
2021-01-14 15:00:42.897,-0.0073294128690447125,-0.9337671435609155,-0.380152196300273,0.009826377965509892,-4.703662489191629E-5,-5.277875461615622E-4,0.7180590033531189,0.4874440133571625,0.2768450081348419,0.4124870002269745
2021-01-14 15:00:42.907,-0.006352157465049199,-0.9332785314443159,-0.3755102352220185,0.009826377965509892,0.003007289720699191,-0.0023603832814842463,0.7180730104446411,0.4874359965324402,0.2768290042877197,0.41248100996017456
2021-01-14 15:00:42.917,-0.006107843804116151,-0.9337671435609155,-0.3735557380987673,0.01043724361807108,0.003618154674768448,-0.0029712487012147903,0.7180899977684021,0.48743200302124023,0.2768090069293976,0.4124700129032135
2021-01-14 15:00:42.927,-0.003909020095455403,-0.9320569524959641,-0.3728227955954415,0.007993782870471478,0.002396424300968647,-0.0023603832814842463,0.7181050181388855,0.48743098974227905,0.27678999304771423,0.41245898604393005
2021-01-14 15:00:42.937,-0.0014658825357957762,-0.9318126950945173,-0.3742886806020931,0.007993782870471478,-6.579018663614988E-4,-5.277875461615622E-4,0.7181180119514465,0.48743098974227905,0.27677199244499207,0.4124470055103302
2021-01-14 15:00:42.947,-0.002443137559659627,-0.9320569524959641,-0.3738000441570671,0.007993782870471478,-6.579018663614988E-4,6.939428858458996E-4,0.7181299924850464,0.4874280095100403,0.276760995388031,0.41243699193000793
2021-01-14 15:00:42.957,-0.0026874514106585055,-0.931079728262765,-0.37086827414376394,0.00738291721791029,-6.579018663614988E-4,0.0037482690531760454,0.7181450128555298,0.4874280095100403,0.27674800157546997,0.4124220013618469
2021-01-14 15:00:42.967,-0.003909020095455403,-0.9305911161461654,-0.3694023891371123,0.0055503216572105885,-6.579018663614988E-4,0.0037482690531760454,0.7181580066680908,0.4874289929866791,0.2767370045185089,0.41240501403808594
2021-01-14 15:00:42.977,-0.003909020095455403,-0.9264377671845104,-0.3703796620271644,0.0055503216572105885,-6.579018663614988E-4,0.0037482690531760454,0.7181580066680908,0.4874289929866791,0.2767370045185089,0.41240501403808594
2021-01-14 15:00:42.987,-0.004886275119319254,-0.9235059971712073,-0.36891377702051276,0.006161186844110489,-0.004323093220591545,0.004359134007245302,0.7181580066680908,0.4874289929866791,0.2767370045185089,0.41240501403808594
2021-01-14 15:00:42.997,-0.006107843804116151,-0.9235059971712073,-0.36842514057548675,0.006772052496671677,-0.0049339584074914455,0.004359134007245302,0.7181580066680908,0.4874289929866791,0.2767370045185089,0.41240501403808594
2021-01-14 15:00:43.007,-0.006840785547178619,-0.9210628392745037,-0.36964671952383854,0.0055503216572105885,-0.007377419620752335,0.0037482690531760454,0.7181580066680908,0.4874289929866791,0.2767370045185089,0.41240501403808594
2021-01-14 15:00:43.017,-0.007573726529977759,-0.9203298724427514,-0.36915808307881254,0.01043724361807108,-0.0049339584074914455,0.003137403866276145,0.7181580066680908,0.4874289929866791,0.2767370045185089,0.41240501403808594
2021-01-14 15:00:43.027,-0.005619216482250057,-0.9222844182228555,-0.3672035859555614,0.012880705296993256,-0.002490497659891844,0.0037482690531760454,0.7181580066680908,0.4874289929866791,0.2767370045185089,0.41240501403808594
2021-01-14 15:00:43.037,-0.0073294128690447125,-0.9188640360929528,-0.3698910255821383,0.012269839644432068,-0.0018796323565766215,0.0037482690531760454,0.7181580066680908,0.4874289929866791,0.2767370045185089,0.41240501403808594
2021-01-14 15:00:43.047,-0.005863530143183105,-0.9186196813778,-0.37208985309211573,0.011048109270632267,-0.005544823594391346,0.003137403866276145,0.7181569933891296,0.48743000626564026,0.2767319977283478,0.4124079942703247
2021-01-14 15:00:43.057,-0.005863530143183105,-0.9213071939896563,-0.37257848953714173,0.01165897399187088,-0.006155689246952534,0.0013048081891611218,0.7181659936904907,0.4874359965324402,0.2767150104045868,0.41239500045776367
2021-01-14 15:00:43.067,-0.008795294834642994,-0.922773030339455,-0.37208985309211573,0.014102434739470482,-0.007377419620752335,8.30776771181263E-5,0.7181680202484131,0.4874339997768402,0.2767080068588257,0.4124000072479248
2021-01-14 15:00:43.077,-0.00952823657770546,-0.9261934124693578,-0.37135691058878995,0.014102434739470482,-0.007377419620752335,8.30776771181263E-5,0.7181680202484131,0.4874339997768402,0.2767080068588257,0.4124000072479248
2021-01-14 15:00:43.087,-0.007085099208111665,-0.92692637930111,-0.3716012166470897,0.01471330039203167,-0.006155689246952534,-0.0017495180945843458,0.7181450128555298,0.4874979853630066,0.2766999900341034,0.4123699963092804
2021-01-14 15:00:43.097,-0.008795294834642994,-0.9303467614310128,-0.3723341591504155,0.01471330039203167,-0.004323093220591545,-0.0017495180945843458,0.7181220054626465,0.4875589907169342,0.2767010033130646,0.41233599185943604
2021-01-14 15:00:43.107,-0.006596471125982245,-0.9323013072111168,-0.37208985309211573,0.015324165113270283,-0.0018796323565766215,-0.0017495180945843458,0.7180870175361633,0.48761099576950073,0.27671900391578674,0.4123240113258362
2021-01-14 15:00:43.117,-0.006107843804116151,-0.93523307722442,-0.3733114077120411,0.015324165113270283,-4.703662489191629E-5,-0.0023603832814842463,0.7180439829826355,0.4876590073108673,0.27674800157546997,0.412321001291275
2021-01-14 15:00:43.127,-0.005619216482250057,-0.93523307722442,-0.37208985309211573,0.012880705296993256,5.638286238536239E-4,-0.0023603832814842463,0.7179970145225525,0.4877009987831116,0.2767910063266754,0.41232600808143616
2021-01-14 15:00:43.137,-0.003909020095455403,-0.9381648472377232,-0.37135691058878995,0.013491569086909294,-6.579018663614988E-4,-5.277875461615622E-4,0.7179520130157471,0.48773300647735596,0.2768329977989197,0.412337988615036
2021-01-14 15:00:43.147,-0.0031760787325245993,-0.9388977167557696,-0.3728227955954415,0.015324165113270283,-0.0031013628467917442,0.0013048081891611218,0.7179020047187805,0.4877699911594391,0.27687299251556396,0.4123559892177582
2021-01-14 15:00:43.157,-0.0014658825357957762,-0.93840910463917,-0.3735557380987673,0.01471330039203167,-0.004323093220591545,0.0025265386793762445,0.7178419828414917,0.48781999945640564,0.2769100069999695,0.41237500309944153
2021-01-14 15:00:43.167,-0.002443137559659627,-0.9374318804059709,-0.3730671016537413,0.012880705296993256,-0.007377419620752335,0.0037482690531760454,0.7177209854125977,0.48791301250457764,0.2769879996776581,0.4124239981174469
2021-01-14 15:00:43.177,-0.0017101963867946547,-0.9371875256908182,-0.3742886806020931,0.012269839644432068,-0.006766554433852434,0.00496999965980649,0.7176629900932312,0.48796001076698303,0.27701300382614136,0.41245099902153015
2021-01-14 15:00:43.187,-0.0051305887802523,-0.9364546561727718,-0.37257848953714173,0.014102434739470482,-0.008599149994552135,0.00496999965980649,0.7176030278205872,0.48800501227378845,0.27703699469566345,0.4124870002269745
2021-01-14 15:00:43.197,-0.0073294128690447125,-0.9393864261860749,-0.36891377702051276,0.012269839644432068,-0.009210015647113323,0.004359134007245302,0.7175390124320984,0.48805999755859375,0.27706000208854675,0.4125179946422577
2021-01-14 15:00:43.207,-0.006840785547178619,-0.9376762351211235,-0.37135691058878995,0.01043724361807108,-0.011653476394712925,0.003137403866276145,0.7174810171127319,0.48810699582099915,0.2770799994468689,0.41255098581314087
2021-01-14 15:00:43.217,-0.0083066675127769,-0.9349887225092673,-0.36866944663378654,0.01043724361807108,-0.011653476394712925,0.003137403866276145,0.7174810171127319,0.48810699582099915,0.2770799994468689,0.41255098581314087
2021-01-14 15:00:43.227,-0.009039609255839366,-0.9327899193277164,-0.37086827414376394,0.007993782870471478,-0.012875206768512726,0.0025265386793762445,0.7174320220947266,0.4881500005722046,0.27709099650382996,0.4125770032405853
2021-01-14 15:00:43.237,-0.0083066675127769,-0.9301025040295658,-0.36866944663378654,0.00860464759171009,-0.01043174508959055,0.0013048081891611218,0.7173920273780823,0.4881869852542877,0.2770940065383911,0.41260001063346863
2021-01-14 15:00:43.247,-0.006596471125982245,-0.9296137945992605,-0.3642718159422582,0.007993782870471478,-0.006766554433852434,-5.277875461615622E-4,0.7173460125923157,0.48822298645973206,0.2771089971065521,0.4126270115375519
2021-01-14 15:00:43.257,-0.0073294128690447125,-0.9281479582494618,-0.36573770094890984,0.009215513244271278,-0.0037122280336916447,-0.0011386527912691236,0.7172979712486267,0.48824700713157654,0.2771419882774353,0.41266000270843506
2021-01-14 15:00:43.267,-0.003909020095455403,-0.9296137945992605,-0.36573770094890984,0.00860464759171009,-0.0037122280336916447,-0.0017495180945843458,0.7171890139579773,0.488290011882782,0.2772409915924072,0.4127329885959625
2021-01-14 15:00:43.277,-0.0036647064345223562,-0.92692637930111,-0.364516122000558,0.007993782870471478,-0.004323093220591545,-0.0011386527912691236,0.7171350121498108,0.4883109927177429,0.27729299664497375,0.41276800632476807
2021-01-14 15:00:43.287,-0.004641961458386207,-0.928880925081214,-0.3664706434522356,0.009215513244271278,-0.005544823594391346,-5.277875461615622E-4,0.7170810103416443,0.48833000659942627,0.2773439884185791,0.4128040075302124
2021-01-14 15:00:43.297,-0.0019545100477277016,-0.9276593461328623,-0.365004758445584,0.009215513244271278,-0.005544823594391346,-5.277875461615622E-4,0.7170810103416443,0.48833000659942627,0.2773439884185791,0.4128040075302124
2021-01-14 15:00:43.307,-0.0017101963867946547,-0.9274149914177096,-0.3632945430522062,0.009826377965509892,-0.007377419620752335,6.939428858458996E-4,0.717024028301239,0.48835599422454834,0.27739301323890686,0.41284000873565674
2021-01-14 15:00:43.317,-0.0021988237086607485,-0.9283923129646144,-0.36549337056218356,0.009215513244271278,-0.009210015647113323,6.939428858458996E-4,0.7169650197029114,0.4883880019187927,0.2774370014667511,0.4128749966621399
2021-01-14 15:00:43.327,-0.00415333375638845,-0.9279036035343091,-0.3664706434522356,0.00860464759171009,-0.009210015647113323,8.30776771181263E-5,0.7169089913368225,0.4884209930896759,0.2774769961833954,0.4129039943218231
2021-01-14 15:00:43.337,-0.0083066675127769,-0.9259491550679109,-0.3672035859555614,0.006772052496671677,-0.01043174508959055,6.939428858458996E-4,0.716854989528656,0.48844900727272034,0.2775219976902008,0.4129349887371063
2021-01-14 15:00:43.347,-0.007818040190910806,-0.9283923129646144,-0.368180834517187,0.006161186844110489,-0.009210015647113323,-0.0011386527912691236,0.7167569994926453,0.4884980022907257,0.2775909900665283,0.41300100088119507
2021-01-14 15:00:43.357,-0.0083066675127769,-0.9274149914177096,-0.3662263130655094,0.00738291721791029,-0.007377419620752335,-5.277875461615622E-4,0.7167119979858398,0.4885129928588867,0.27762800455093384,0.4130370020866394
2021-01-14 15:00:43.367,-0.008550981173709947,-0.9286365703660614,-0.3652490645038838,0.006772052496671677,-0.006766554433852434,-0.003582113655284047,0.7166590094566345,0.4885300099849701,0.2776710093021393,0.41308000683784485
2021-01-14 15:00:43.377,-0.006352157465049199,-0.9320569524959641,-0.3637831794972322,0.006772052496671677,-0.006155689246952534,-0.0029712487012147903,0.7166129946708679,0.48854199051856995,0.27772000432014465,0.4131140112876892
2021-01-14 15:00:43.387,-0.005863530143183105,-0.9335228861594687,-0.3664706434522356,0.006772052496671677,-0.005544823594391346,-0.0017495180945843458,0.7165619730949402,0.48855501413345337,0.27777099609375,0.41315099596977234
2021-01-14 15:00:43.397,-0.003909020095455403,-0.9374318804059709,-0.3632945430522062,0.0055503216572105885,-0.0049339584074914455,-0.0011386527912691236,0.7165089845657349,0.4885689914226532,0.27782198786735535,0.4131940007209778
2021-01-14 15:00:43.407,-0.004641961458386207,-0.9393864261860749,-0.36549337056218356,0.006772052496671677,-0.0049339584074914455,6.939428858458996E-4,0.716454029083252,0.48858100175857544,0.2778739929199219,0.413237988948822
2021-01-14 15:00:43.417,-0.0051305887802523,-0.940363650419274,-0.3674478920138612,0.006161186844110489,-0.0031013628467917442,6.939428858458996E-4,0.7163919806480408,0.48860201239585876,0.2779259979724884,0.4132860004901886
2021-01-14 15:00:43.427,-0.006352157465049199,-0.9415852293676259,-0.3669592555688352,0.007993782870471478,-0.0049339584074914455,8.30776771181263E-5,0.7163289785385132,0.4886170029640198,0.27798399329185486,0.4133389890193939
2021-01-14 15:00:43.437,-0.006840785547178619,-0.9418294867690727,-0.3672035859555614,0.00738291721791029,-0.005544823594391346,6.939428858458996E-4,0.7162650227546692,0.48864200711250305,0.27803999185562134,0.41338300704956055
2021-01-14 15:00:43.447,-0.007085099208111665,-0.9376762351211235,-0.36769219807216097,0.009215513244271278,-0.004323093220591545,6.939428858458996E-4,0.7161999940872192,0.4886679947376251,0.27809199690818787,0.41342899203300476
2021-01-14 15:00:43.457,-0.006840785547178619,-0.9376762351211235,-0.368180834517187,0.00738291721791029,-0.0037122280336916447,6.939428858458996E-4,0.7161300182342529,0.48869800567626953,0.2781510055065155,0.41347700357437134
2021-01-14 15:00:43.467,-0.005863530143183105,-0.9362103014576191,-0.3664706434522356,0.007993782870471478,-0.002490497659891844,0.0013048081891611218,0.7160630226135254,0.4887169897556305,0.2782079875469208,0.41353100538253784
2021-01-14 15:00:43.477,-0.0073294128690447125,-0.9357216893410195,-0.3664706434522356,0.009826377965509892,-0.002490497659891844,6.939428858458996E-4,0.7159919738769531,0.48873698711395264,0.2782689929008484,0.4135879874229431
2021-01-14 15:00:43.487,-0.007818040190910806,-0.9315683403793645,-0.3664706434522356,0.00860464759171009,-0.0018796323565766215,0.0019156733760610223,0.715919017791748,0.4887630045413971,0.27833399176597595,0.4136419892311096
2021-01-14 15:00:43.497,-0.006840785547178619,-0.9301025040295658,-0.3632945430522062,0.00860464759171009,-0.0018796323565766215,0.0025265386793762445,0.7158460021018982,0.48878398537635803,0.2783930003643036,0.41370299458503723
2021-01-14 15:00:43.507,-0.006107843804116151,-0.9298581493144132,-0.3647604280588578,0.009215513244271278,-0.0018796323565766215,0.0037482690531760454,0.7157989740371704,0.4887700080871582,0.27844300866127014,0.4137679934501648
2021-01-14 15:00:43.517,-0.0073294128690447125,-0.929125182482661,-0.36231729449058064,0.007993782870471478,-0.0018796323565766215,0.00558086484670639,0.7157549858093262,0.48875701427459717,0.27848801016807556,0.4138279855251312
2021-01-14 15:00:43.527,-0.006107843804116151,-0.9298581493144132,-0.36305023699390643,0.006772052496671677,-0.004323093220591545,0.00496999965980649,0.7157139778137207,0.4887489974498749,0.2785300016403198,0.41388198733329773
2021-01-14 15:00:43.537,-0.007818040190910806,-0.92692637930111,-0.3652490645038838,0.00738291721791029,-0.0049339584074914455,0.004359134007245302,0.71567302942276,0.488741010427475,0.2785719931125641,0.41393399238586426
2021-01-14 15:00:43.547,-0.005374902821317011,-0.9279036035343091,-0.3664706434522356,0.00738291721791029,-0.005544823594391346,0.00496999965980649,0.7156350016593933,0.4887329936027527,0.2786090075969696,0.4139840006828308
2021-01-14 15:00:43.557,-0.006352157465049199,-0.9266821218996631,-0.364027485555532,0.009826377965509892,-0.006766554433852434,0.00496999965980649,0.7156010270118713,0.4887239933013916,0.27864301204681396,0.41402900218963623
2021-01-14 15:00:43.567,-0.008062353851843852,-0.9281479582494618,-0.3632945430522062,0.01165897399187088,-0.0031013628467917442,0.00496999965980649,0.7155699729919434,0.4887160062789917,0.27867498993873596,0.4140720069408417
2021-01-14 15:00:43.577,-0.0083066675127769,-0.9281479582494618,-0.36158435198725486,0.01165897399187088,-4.703662489191629E-5,0.006191730033606291,0.7155399918556213,0.48871099948883057,0.2787019908428192,0.414110004901886
2021-01-14 15:00:43.587,-0.0073294128690447125,-0.9264377671845104,-0.35865258197395167,0.007993782870471478,5.638286238536239E-4,0.006802595220506191,0.7155100107192993,0.4887090027332306,0.27872899174690247,0.4141460061073303
2021-01-14 15:00:43.597,-0.008062353851843852,-0.9293695371978137,-0.36060710342562924,0.002495995257049799,-0.001268767169676721,0.007413460873067379,0.7154800295829773,0.4887099862098694,0.2787550091743469,0.4141800105571747
2021-01-14 15:00:43.607,-0.008795294834642994,-0.9323013072111168,-0.3652490645038838,6.633996381424367E-4,-0.0037122280336916447,0.006802595220506191,0.7154489755630493,0.4887140095233917,0.278780996799469,0.4142110049724579
2021-01-14 15:00:43.617,-0.011238432964500115,-0.9374318804059709,-0.36573770094890984,5.253441122476943E-5,-0.002490497659891844,0.00558086484670639,0.7154179811477661,0.48871898651123047,0.2788040041923523,0.41424399614334106
2021-01-14 15:00:43.627,-0.010505491221437648,-0.9388977167557696,-0.36549337056218356,0.001274264883249998,0.0011746938107535243,0.00558086484670639,0.7153869867324829,0.4887250065803528,0.27882400155067444,0.41427499055862427
2021-01-14 15:00:43.638,-0.008550981173709947,-0.9410966172510263,-0.364027485555532,5.253441122476943E-5,0.003007289720699191,0.004359134007245302,0.7153549790382385,0.48873400688171387,0.2788429856300354,0.41430801153182983
2021-01-14 15:00:43.648,-0.0051305887802523,-0.9420738414842255,-0.36549337056218356,-0.0017800614004954696,0.003007289720699191,0.0037482690531760454,0.7153210043907166,0.4887450039386749,0.2788639962673187,0.41433900594711304
2021-01-14 15:00:43.658,-0.006107843804116151,-0.9410966172510263,-0.3659820070072096,-0.0017800614004954696,0.003007289720699191,0.0037482690531760454,0.7153210043907166,0.4887450039386749,0.2788639962673187,0.41433900594711304
2021-01-14 15:00:43.668,-0.007573726529977759,-0.9364546561727718,-0.36866944663378654,-0.002390926703810692,-4.703662489191629E-5,0.006191730033606291,0.7152929902076721,0.48875799775123596,0.2788819968700409,0.41436100006103516
2021-01-14 15:00:43.678,-0.0083066675127769,-0.9357216893410195,-0.37062396808546416,0.001274264883249998,-0.0031013628467917442,0.00496999965980649,0.715237021446228,0.4887790083885193,0.2789210081100464,0.41440701484680176
2021-01-14 15:00:43.688,-0.010016863899571554,-0.9327899193277164,-0.36769219807216097,0.003106860676780343,-0.001268767169676721,0.0025265386793762445,0.7152109742164612,0.48878300189971924,0.27893900871276855,0.4144339859485626
2021-01-14 15:00:43.698,-0.012215687608232302,-0.931079728262765,-0.3694023891371123,0.006161186844110489,0.003007289720699191,0.0025265386793762445,0.7151910066604614,0.48878800868988037,0.2789500057697296,0.41445600986480713
2021-01-14 15:00:43.708,-0.010505491221437648,-0.9308353735476124,-0.3701353316404381,0.00738291721791029,0.005450750235468149,0.0025265386793762445,0.7151690125465393,0.48879098892211914,0.2789579927921295,0.4144839942455292
2021-01-14 15:00:43.718,-0.010505491221437648,-0.9296137945992605,-0.36964671952383854,0.00860464759171009,0.005450750235468149,0.0025265386793762445,0.7151529788970947,0.4887939989566803,0.2789599895477295,0.41450798511505127
2021-01-14 15:00:43.728,-0.0083066675127769,-0.9264377671845104,-0.3664706434522356,0.007993782870471478,0.003618154674768448,0.003137403866276145,0.7151389718055725,0.4887939989566803,0.2789579927921295,0.41453298926353455
2021-01-14 15:00:43.738,-0.0073294128690447125,-0.92692637930111,-0.3642718159422582,0.006772052496671677,0.003007289720699191,0.0025265386793762445,0.7151250243186951,0.4887939989566803,0.2789579927921295,0.41455700993537903
2021-01-14 15:00:43.748,-0.0083066675127769,-0.9271707340162627,-0.364516122000558,0.006161186844110489,0.003007289720699191,0.0037482690531760454,0.7151209712028503,0.4887999892234802,0.27894699573516846,0.41456499695777893
2021-01-14 15:00:43.758,-0.007818040190910806,-0.9286365703660614,-0.3642718159422582,0.006772052496671677,0.004839885048568249,0.004359134007245302,0.7151070237159729,0.48879900574684143,0.27894899249076843,0.41458800435066223
2021-01-14 15:00:43.768,-0.009772550238638508,-0.9301025040295658,-0.3632945430522062,0.00738291721791029,0.006061615888029337,0.004359134007245302,0.7150959968566895,0.4888010025024414,0.27894899249076843,0.4146049916744232
2021-01-14 15:00:43.778,-0.009039609255839366,-0.9313240829779177,-0.364516122000558,0.00738291721791029,0.005450750235468149,0.0037482690531760454,0.7150899767875671,0.4888089895248413,0.27894100546836853,0.41460999846458435
2021-01-14 15:00:43.788,-0.009039609255839366,-0.9303467614310128,-0.36280593093560665,0.006161186844110489,0.004229020327329636,0.00496999965980649,0.7150840163230896,0.4888190031051636,0.27893298864364624,0.4146159887313843
2021-01-14 15:00:43.798,-0.0102611775605046,-0.929125182482661,-0.3613400459289551,0.006772052496671677,0.003618154674768448,0.0037482690531760454,0.7150760293006897,0.48883000016212463,0.2789260149002075,0.4146200120449066
2021-01-14 15:00:43.808,-0.01319294225196449,-0.9276593461328623,-0.35938552447727745,0.006772052496671677,0.003618154674768448,0.0037482690531760454,0.7150670289993286,0.48884400725364685,0.2789190113544464,0.41462498903274536
2021-01-14 15:00:43.818,-0.01172706028636621,-0.9261934124693578,-0.3588969123606779,0.0055503216572105885,0.004839885048568249,0.0037482690531760454,0.7150539755821228,0.488862007856369,0.2789109945297241,0.4146299958229065
2021-01-14 15:00:43.828,-0.011482746625433162,-0.9266821218996631,-0.36109573987065524,0.003717726096510887,0.006061615888029337,0.00558086484670639,0.7150390148162842,0.48888400197029114,0.2789030075073242,0.4146359860897064
2021-01-14 15:00:43.838,-0.011971373947299255,-0.9254605429513113,-0.3637831794972322,0.003717726096510887,0.006672481074929237,0.006191730033606291,0.7150239944458008,0.48890700936317444,0.27889299392700195,0.41464200615882874
2021-01-14 15:00:43.848,-0.010749805642634022,-0.9252161882361587,-0.36231729449058064,0.003717726096510887,0.008505076169967651,0.006191730033606291,0.7150020003318787,0.48892301321029663,0.2788900136947632,0.4146609902381897
2021-01-14 15:00:43.858,-0.011971373947299255,-0.9247275761195591,-0.3637831794972322,0.004328591283410788,0.007894211448729038,0.008024326525628567,0.7149879932403564,0.48894399404525757,0.27887898683547974,0.414669007062912
2021-01-14 15:00:43.868,-0.010505491221437648,-0.9259491550679109,-0.3647604280588578,0.004939456470310688,0.007894211448729038,0.007413460873067379,0.7149749994277954,0.4889639914035797,0.2788659930229187,0.41467800736427307
2021-01-14 15:00:43.878,-0.009772550238638508,-0.9271707340162627,-0.3632945430522062,0.004939456470310688,0.007283346261829138,0.006191730033606291,0.7149630188941956,0.4889810085296631,0.2788519859313965,0.41468700766563416
2021-01-14 15:00:43.888,-0.012948628591031443,-0.9266821218996631,-0.365004758445584,0.004328591283410788,0.01033767219632864,0.004359134007245302,0.7149509787559509,0.4889979958534241,0.27883899211883545,0.41469600796699524
2021-01-14 15:00:43.898,-0.012215687608232302,-0.9305911161461654,-0.36109573987065524,0.003717726096510887,0.010948537848889828,0.003137403866276145,0.7149400115013123,0.48901399970054626,0.27882400155067444,0.4147059917449951
2021-01-14 15:00:43.908,-0.012215687608232302,-0.9318126950945173,-0.364027485555532,0.0018851301865652204,0.012170268222689629,0.0013048081891611218,0.7149270176887512,0.4890330135822296,0.2788099944591522,0.4147160053253174
2021-01-14 15:00:43.918,-0.010749805642634022,-0.9369432682893714,-0.3632945430522062,0.001274264883249998,0.012170268222689629,0.0013048081891611218,0.7148889899253845,0.48903700709342957,0.27883899211883545,0.41475701332092285
2021-01-14 15:00:43.929,-0.0102611775605046,-0.9388977167557696,-0.364516122000558,-5.58330852072686E-4,0.014002864249050617,-0.0011386527912691236,0.7148510217666626,0.48903998732566833,0.27886900305747986,0.4147990047931671
2021-01-14 15:00:43.939,-0.0083066675127769,-0.9420738414842255,-0.3662263130655094,6.633996381424367E-4,0.014613729901611805,-0.0011386527912691236,0.7148200273513794,0.48903000354766846,0.27890899777412415,0.4148379862308502
2021-01-14 15:00:43.949,-0.0036647064345223562,-0.9459828357307277,-0.36573770094890984,5.253441122476943E-5,0.014613729901611805,6.939428858458996E-4,0.7147849798202515,0.48902300000190735,0.27895599603652954,0.41487500071525574
2021-01-14 15:00:43.959,-0.0031760787325245993,-0.94671580256248,-0.3672035859555614,0.001274264883249998,0.012781133875250816,0.0019156733760610223,0.7147489786148071,0.48901501297950745,0.2790040075778961,0.41491401195526123
2021-01-14 15:00:43.969,-0.0031760787325245993,-0.9459828357307277,-0.3647604280588578,0.001274264883249998,0.01033767219632864,0.004359134007245302,0.7147110104560852,0.48901501297950745,0.27904999256134033,0.4149489998817444
2021-01-14 15:00:43.979,-0.00415333375638845,-0.9440283872643295,-0.3659820070072096,-5.58330852072686E-4,0.008505076169967651,0.00496999965980649,0.7146710157394409,0.48902300000190735,0.27908599376678467,0.41498300433158875
2021-01-14 15:00:43.989,-0.00415333375638845,-0.9428068083159777,-0.36573770094890984,-5.58330852072686E-4,0.008505076169967651,0.006802595220506191,0.7146480083465576,0.4890339970588684,0.27910101413726807,0.41499999165534973
2021-01-14 15:00:43.999,-0.005863530143183105,-0.9410966172510263,-0.365004758445584,-5.58330852072686E-4,0.01033767219632864,0.008024326525628567,0.714618980884552,0.48904600739479065,0.27911800146102905,0.415024995803833
2021-01-14 15:00:44.009,-0.0083066675127769,-0.9379204925225705,-0.36256162487730687,-0.0030017916578799486,0.007283346261829138,0.006191730033606291,0.7145839929580688,0.48905500769615173,0.2791390120983124,0.41506001353263855
2021-01-14 15:00:44.019,-0.007573726529977759,-0.93523307722442,-0.36549337056218356,-0.004834387917071581,0.002396424300968647,0.0037482690531760454,0.7145630121231079,0.48906001448631287,0.27914801239967346,0.41508299112319946
2021-01-14 15:00:44.029,-0.0083066675127769,-0.9313240829779177,-0.36280593093560665,-0.005445253103971481,-4.703662489191629E-5,0.0025265386793762445,0.7145619988441467,0.4890669882297516,0.27913698554039,0.41508498787879944
2021-01-14 15:00:44.039,-0.006107843804116151,-0.9283923129646144,-0.3632945430522062,-0.006666983012109995,-0.002490497659891844,0.0019156733760610223,0.7145689725875854,0.4890739917755127,0.27911698818206787,0.4150789976119995
2021-01-14 15:00:44.049,-0.006840785547178619,-0.9257048003527583,-0.36353887343893243,-0.0060561178252100945,-0.0031013628467917442,6.939428858458996E-4,0.7145810127258301,0.48907700181007385,0.2790910005569458,0.4150710105895996
2021-01-14 15:00:44.059,-0.008795294834642994,-0.9254605429513113,-0.36353887343893243,-0.005445253103971481,-0.0037122280336916447,0.0013048081891611218,0.7146000266075134,0.4890809953212738,0.27906298637390137,0.41505199670791626
2021-01-14 15:00:44.069,-0.010505491221437648,-0.9235059971712073,-0.36256162487730687,-0.0036126570776104927,-0.0037122280336916447,6.939428858458996E-4,0.7146160006523132,0.48908698558807373,0.27903300523757935,0.4150390028953552
2021-01-14 15:00:44.079,-0.008550981173709947,-0.9232616424560546,-0.36109573987065524,-0.0036126570776104927,-0.0037122280336916447,6.939428858458996E-4,0.7146160006523132,0.48908698558807373,0.27903300523757935,0.4150390028953552
2021-01-14 15:00:44.089,-0.010994119303567067,-0.9237503518863599,-0.3642718159422582,-0.002390926703810692,-0.002490497659891844,8.30776771181263E-5,0.7146310210227966,0.48910000920295715,0.27900201082229614,0.4150190055370331
2021-01-14 15:00:44.099,-0.011482746625433162,-0.9254605429513113,-0.36109573987065524,-0.0011691960971802473,-0.002490497659891844,-5.277875461615622E-4,0.7146329879760742,0.48910701274871826,0.2789900004863739,0.41501501202583313
2021-01-14 15:00:44.109,-0.008795294834642994,-0.9281479582494618,-0.3618286823739811,0.001274264883249998,-0.0018796323565766215,-0.0011386527912691236,0.7146329879760742,0.4891209900379181,0.2789810001850128,0.4150030016899109
2021-01-14 15:00:44.119,-0.007818040190910806,-0.9293695371978137,-0.36280593093560665,0.001274264883249998,-0.0018796323565766215,-0.0011386527912691236,0.7146350145339966,0.48913800716400146,0.2789680063724518,0.41498899459838867
2021-01-14 15:00:44.129,-0.007085099208111665,-0.9320569524959641,-0.36305023699390643,0.001274264883249998,-0.0018796323565766215,-0.0017495180945843458,0.7146270275115967,0.4891499876976013,0.2789649963378906,0.41499000787734985
2021-01-14 15:00:44.139,-0.007085099208111665,-0.9301025040295658,-0.3637831794972322,5.253441122476943E-5,-0.0037122280336916447,-0.0017495180945843458,0.714618980884552,0.48916101455688477,0.27896401286125183,0.41499099135398865
2021-01-14 15:00:44.149,-0.005863530143183105,-0.9332785314443159,-0.3632945430522062,5.253441122476943E-5,-0.005544823594391346,-0.0011386527912691236,0.7146120071411133,0.4891729950904846,0.27896401286125183,0.41499099135398865
2021-01-14 15:00:44.159,-0.006596471125982245,-0.9371875256908182,-0.3647604280588578,-5.58330852072686E-4,-0.007377419620752335,-0.0029712487012147903,0.7146049737930298,0.4891830086708069,0.2789649963378906,0.41499000787734985
2021-01-14 15:00:44.169,-0.006840785547178619,-0.9337671435609155,-0.36549337056218356,-0.0011691960971802473,-0.011042610742151737,-0.003582113655284047,0.7145980000495911,0.48919299244880676,0.2789680063724518,0.4149880111217499
2021-01-14 15:00:44.179,-0.009283922916772413,-0.9347444651078204,-0.36549337056218356,-0.0030017916578799486,-0.012264341115951538,-0.004192979075014591,0.7145910263061523,0.4892039895057678,0.27897199988365173,0.4149850010871887
2021-01-14 15:00:44.189,-0.0102611775605046,-0.9342557556775151,-0.3664706434522356,-0.004223522264510393,-0.014096937142312527,-0.0060255746357142925,0.71458500623703,0.4892129898071289,0.2789759933948517,0.41498199105262756
2021-01-14 15:00:44.199,-0.008795294834642994,-0.9337671435609155,-0.3694023891371123,-0.0060561178252100945,-0.016540396958589554,-0.006636439822614193,0.714572012424469,0.4892309904098511,0.27897998690605164,0.4149799942970276
2021-01-14 15:00:44.209,-0.012215687608232302,-0.9332785314443159,-0.37111260453049016,-0.0060561178252100945,-0.016540396958589554,-0.006636439822614193,0.714572012424469,0.4892309904098511,0.27897998690605164,0.4149799942970276
2021-01-14 15:00:44.219,-0.011971373947299255,-0.9354773346258669,-0.37111260453049016,-0.0060561178252100945,-0.015318667516112328,-0.006636439822614193,0.714568018913269,0.4892370104789734,0.27897900342941284,0.4149799942970276
2021-01-14 15:00:44.229,-0.008795294834642994,-0.9357216893410195,-0.3701353316404381,-0.004834387917071581,-0.012875206768512726,-0.006636439822614193,0.7145649790763855,0.48924198746681213,0.2789730131626129,0.41498398780822754
2021-01-14 15:00:44.239,-0.007573726529977759,-0.9342557556775151,-0.36842514057548675,-0.004834387917071581,-0.005544823594391346,-0.003582113655284047,0.7145609855651855,0.48924699425697327,0.27895599603652954,0.4149959981441498
2021-01-14 15:00:44.249,-0.0073294128690447125,-0.9345001103926678,-0.3647604280588578,-0.004834387917071581,-0.005544823594391346,-0.003582113655284047,0.7145609855651855,0.48924699425697327,0.27895599603652954,0.4149959981441498
2021-01-14 15:00:44.259,-0.004397647417321497,-0.9354773346258669,-0.36305023699390643,-0.005445253103971481,-0.006155689246952534,-0.0023603832814842463,0.7145599722862244,0.48924800753593445,0.27894800901412964,0.4150010049343109
2021-01-14 15:00:44.269,-0.005863530143183105,-0.9354773346258669,-0.36573770094890984,-0.00849957950413227,-0.006766554433852434,-5.277875461615622E-4,0.714559018611908,0.4892500042915344,0.2789430022239685,0.41500499844551086
2021-01-14 15:00:44.279,-0.005863530143183105,-0.9371875256908182,-0.36769219807216097,-0.007888713851571083,-0.006766554433852434,0.0013048081891611218,0.714559018611908,0.4892500042915344,0.2789430022239685,0.41500499844551086
2021-01-14 15:00:44.289,-0.008550981173709947,-0.9396306835875219,-0.3667149495105354,-0.007277848664671183,-0.0049339584074914455,0.0013048081891611218,0.714559018611908,0.4892500042915344,0.2789430022239685,0.41500499844551086
2021-01-14 15:00:44.299,-0.006840785547178619,-0.940363650419274,-0.3664706434522356,-0.005445253103971481,-0.0037122280336916447,0.0019156733760610223,0.7145810127258301,0.4892359972000122,0.27890700101852417,0.415008008480072
2021-01-14 15:00:44.309,-0.009283922916772413,-0.9374318804059709,-0.3642718159422582,-0.009110444225370884,-0.0049339584074914455,0.0013048081891611218,0.7145919799804688,0.4892309904098511,0.2788800001144409,0.4150109887123108
2021-01-14 15:00:44.319,-0.008795294834642994,-0.9337671435609155,-0.36573770094890984,-0.009110444225370884,-0.007988284341990948,0.0019156733760610223,0.714622974395752,0.48922500014305115,0.2788330018520355,0.41499799489974976
2021-01-14 15:00:44.329,-0.009039609255839366,-0.9325455646125637,-0.36769219807216097,-0.009110444225370884,-0.007988284341990948,0.0019156733760610223,0.714622974395752,0.48922500014305115,0.2788330018520355,0.41499799489974976
2021-01-14 15:00:44.339,-0.008795294834642994,-0.9323013072111168,-0.36964671952383854,-0.010332174599170685,-0.011653476394712925,0.0025265386793762445,0.7146570086479187,0.48922601342201233,0.2787719964981079,0.4149790108203888
2021-01-14 15:00:44.349,-0.009772550238638508,-0.931079728262765,-0.3694023891371123,-0.009721309877932072,-0.011653476394712925,0.0013048081891611218,0.7146989703178406,0.4892289936542511,0.27869299054145813,0.4149560034275055
2021-01-14 15:00:44.359,-0.010994119303567067,-0.9296137945992605,-0.36891377702051276,-0.005445253103971481,-0.006155689246952534,8.30776771181263E-5,0.714788019657135,0.48923200368881226,0.2785469889640808,0.41489699482917786
2021-01-14 15:00:44.369,-0.010505491221437648,-0.92692637930111,-0.36866944663378654,-0.002390926703810692,-0.002490497659891844,6.939428858458996E-4,0.7148200273513794,0.4892350137233734,0.27849501371383667,0.4148719906806946
2021-01-14 15:00:44.379,-0.010016863899571554,-0.9244832214044064,-0.368180834517187,-5.58330852072686E-4,-0.002490497659891844,0.0019156733760610223,0.7148420214653015,0.48924198746681213,0.27845698595046997,0.4148530066013336
2021-01-14 15:00:44.388,-0.008062353851843852,-0.9222844182228555,-0.3662263130655094,0.001274264883249998,-0.0037122280336916447,0.0013048081891611218,0.7148550152778625,0.48925501108169556,0.27842000126838684,0.4148400127887726
2021-01-14 15:00:44.398,-0.005863530143183105,-0.9220401608214086,-0.3664706434522356,0.001274264883249998,-0.005544823594391346,0.0025265386793762445,0.7148690223693848,0.4892730116844177,0.2783840000629425,0.41481900215148926
2021-01-14 15:00:44.408,-0.006352157465049199,-0.9203298724427514,-0.3667149495105354,5.253441122476943E-5,-0.006766554433852434,0.0025265386793762445,0.7148839831352234,0.4892759919166565,0.27836400270462036,0.41480299830436707
2021-01-14 15:00:44.418,-0.007085099208111665,-0.9193526482095523,-0.3664706434522356,6.633996381424367E-4,-0.006155689246952534,0.0013048081891611218,0.7149009704589844,0.4892759919166565,0.2783440053462982,0.4147869944572449
2021-01-14 15:00:44.428,-0.008062353851843852,-0.9220401608214086,-0.365004758445584,6.633996381424367E-4,-0.005544823594391346,0.0019156733760610223,0.7149149775505066,0.48927098512649536,0.2783290147781372,0.41477999091148376
2021-01-14 15:00:44.438,-0.012215687608232302,-0.9244832214044064,-0.36549337056218356,-5.58330852072686E-4,-0.0037122280336916447,6.939428858458996E-4,0.7149339914321899,0.48927098512649536,0.2783069908618927,0.4147599935531616
2021-01-14 15:00:44.448,-0.01246000126916535,-0.9266821218996631,-0.36573770094890984,6.633996381424367E-4,-0.0031013628467917442,-5.277875461615622E-4,0.7149459719657898,0.4892689883708954,0.2782909870147705,0.4147549867630005
2021-01-14 15:00:44.458,-0.011971373947299255,-0.9271707340162627,-0.3669592555688352,6.633996381424367E-4,-0.0049339584074914455,-0.003582113655284047,0.7149549722671509,0.4892689883708954,0.27827200293540955,0.41475000977516174
2021-01-14 15:00:44.468,-0.011482746625433162,-0.928880925081214,-0.3652490645038838,0.001274264883249998,-0.004323093220591545,-0.004192979075014591,0.7149649858474731,0.48927000164985657,0.2782529890537262,0.4147459864616394
2021-01-14 15:00:44.478,-0.010505491221437648,-0.9315683403793645,-0.3679365284588872,0.001274264883249998,-0.004323093220591545,-0.004192979075014591,0.7149770259857178,0.4892759919166565,0.2782270014286041,0.41473400592803955
2021-01-14 15:00:44.488,-0.008062353851843852,-0.9305911161461654,-0.3674478920138612,0.002495995257049799,-0.002490497659891844,-0.0029712487012147903,0.7149909734725952,0.4892849922180176,0.2781989872455597,0.41471898555755615
2021-01-14 15:00:44.498,-0.008795294834642994,-0.9325455646125637,-0.36964671952383854,0.003106860676780343,-0.002490497659891844,-0.0011386527912691236,0.7150020003318787,0.4892899990081787,0.2781769931316376,0.4147090017795563
2021-01-14 15:00:44.508,-0.007818040190910806,-0.9323013072111168,-0.36915808307881254,0.004328591283410788,-6.579018663614988E-4,8.30776771181263E-5,0.7150149941444397,0.48929598927497864,0.2781539857387543,0.41469499468803406
2021-01-14 15:00:44.518,-0.008795294834642994,-0.9340114982760682,-0.3701353316404381,0.004939456470310688,-0.001268767169676721,0.0019156733760610223,0.7150290012359619,0.48930099606513977,0.27813100814819336,0.41468098759651184
2021-01-14 15:00:44.528,-0.007573726529977759,-0.9342557556775151,-0.37135691058878995,0.004939456470310688,-6.579018663614988E-4,0.0013048081891611218,0.715038001537323,0.48930200934410095,0.27811500430107117,0.4146749973297119
2021-01-14 15:00:44.538,-0.008550981173709947,-0.9347444651078204,-0.3750216231054189,0.004939456470310688,-0.0018796323565766215,6.939428858458996E-4,0.7150530219078064,0.4893040060997009,0.27809399366378784,0.4146589934825897
2021-01-14 15:00:44.548,-0.009772550238638508,-0.9357216893410195,-0.37184554703381595,0.004939456470310688,-0.0018796323565766215,6.939428858458996E-4,0.7150530219078064,0.4893040060997009,0.27809399366378784,0.4146589934825897
2021-01-14 15:00:44.558,-0.007818040190910806,-0.9337671435609155,-0.3694023891371123,0.004328591283410788,-0.0018796323565766215,-0.0011386527912691236,0.715071976184845,0.4893049895763397,0.27806800603866577,0.41464200615882874
2021-01-14 15:00:44.568,-0.009283922916772413,-0.9345001103926678,-0.3694023891371123,0.004939456470310688,-6.579018663614988E-4,-0.0029712487012147903,0.7150899767875671,0.4893049895763397,0.27804499864578247,0.4146290123462677
2021-01-14 15:00:44.578,-0.007085099208111665,-0.9320569524959641,-0.36891377702051276,0.001274264883249998,0.003007289720699191,-0.003582113655284047,0.7151070237159729,0.4893049895763397,0.27802300453186035,0.4146139919757843
2021-01-14 15:00:44.588,-0.0051305887802523,-0.9320569524959641,-0.36842514057548675,5.253441122476943E-5,0.005450750235468149,-0.003582113655284047,0.7151179909706116,0.48930299282073975,0.27800700068473816,0.4146080017089844
2021-01-14 15:00:44.598,-0.00415333375638845,-0.9296137945992605,-0.36891377702051276,5.253441122476943E-5,0.004839885048568249,-0.0029712487012147903,0.7151340246200562,0.4893040060997009,0.27798599004745483,0.4145919978618622
2021-01-14 15:00:44.608,-0.004886275119319254,-0.9303467614310128,-0.3652490645038838,-5.58330852072686E-4,0.003618154674768448,-5.277875461615622E-4,0.715146005153656,0.48930099606513977,0.277974009513855,0.4145829975605011
2021-01-14 15:00:44.618,-0.0073294128690447125,-0.9301025040295658,-0.3669592555688352,5.253441122476943E-5,0.0011746938107535243,0.003137403866276145,0.7151619791984558,0.4892979860305786,0.27796098589897156,0.4145669937133789
2021-01-14 15:00:44.628,-0.009039609255839366,-0.9276593461328623,-0.3679365284588872,-0.0011691960971802473,-4.703662489191629E-5,0.0037482690531760454,0.7151769995689392,0.4892970025539398,0.2779510021209717,0.4145500063896179
2021-01-14 15:00:44.638,-0.010749805642634022,-0.9286365703660614,-0.36769219807216097,-5.58330852072686E-4,5.638286238536239E-4,0.004359134007245302,0.7151910066604614,0.48929598927497864,0.2779409885406494,0.41453298926353455
