Timestamp,AccelX,AccelY,AccelZ,GyroX,GyroY,GyroZ,QuatW,QuatX,QuatY,QuatZ
2020-08-03 13:56:00.015,0.0234222412109375,-1.0004425048828125,-0.0556182861328125,-0.0065226140432059765,0.004114849958568811,0.008724515326321125,0.7280336465572466,0.6853262038930703,0.017175875617083072,-7.522174975320081e-06
2020-08-03 13:56:00.024,0.0238189697265625,-0.999786376953125,-0.05706787109375,-0.003314037574455142,9.400958515470847e-05,0.007514641620218754,0.7280672268073202,0.6852908479388016,0.017161368213242087,-1.938463016086349e-05
2020-08-03 13:56:00.035,0.02435302734375,-0.99951171875,-0.057647705078125,-0.0028389296494424343,0.0013009541435167193,0.009692841209471226,0.7280988671263636,0.6852575811614819,0.017146617177628113,-2.343138065027603e-05
2020-08-03 13:56:00.045,0.0242156982421875,-0.9990234375,-0.0584564208984375,-0.005879993550479412,0.010063286870718002,0.0088187912479043,0.7281354782508824,0.6852186366676272,0.01714831182923922,-1.4272119882077425e-05
2020-08-03 13:56:00.055,0.024749755859375,-0.998077392578125,-0.0585174560546875,-0.0027800737880170345,-0.003615241264924407,0.01059219054877758,0.7281662507343029,0.6851866002912416,0.017120194046453596,-2.05513822615893e-05
2020-08-03 13:56:00.065,0.02459716796875,-0.9982452392578125,-0.0582733154296875,-0.0018929748330265284,0.01267211977392435,0.010632137767970562,0.7281944170478363,0.6851568287308003,0.017117406867182952,-2.937730491680765e-06
2020-08-03 13:56:00.074,0.024444580078125,-0.997161865234375,-0.0576934814453125,-0.0021917815320193768,-0.005275722127407789,0.009104548953473568,0.7282220753362283,0.6851282283041272,0.017086041758740893,-2.3164873078518333e-05
2020-08-03 13:56:00.086,0.0232086181640625,-0.996429443359375,-0.0580902099609375,0.0007267766632139683,0.01727619208395481,0.008107194676995277,0.7282403817215698,0.6851086817666469,0.017090665915896232,-1.3594394735437498e-05
2020-08-03 13:56:00.095,0.0229644775390625,-0.997100830078125,-0.058868408203125,-0.0009166600648313761,0.004685565363615751,0.0074605792760849,0.728261845479409,0.685085980777924,0.017084759909772075,-1.9045394752635614e-05
2020-08-03 13:56:00.105,0.023590087890625,-0.9969024658203125,-0.05828857421875,0.00011211907985853031,0.016275908797979355,0.0070363376289606094,0.727278816137915,0.6861371705407815,0.016766873522575765,0.00033192291532029364
2020-08-03 13:56:00.115,0.02325439453125,-0.997344970703125,-0.0577392578125,0.001068193931132555,0.00902491994202137,0.00740145705640316,0.7271994471663433,0.6862206578436099,0.016794265446828972,0.00031926095617383285
2020-08-03 13:56:00.125,0.0218963623046875,-0.9975128173828125,-0.05767822265625,0.002302835462614894,0.014201839454472065,0.009454221464693546,0.7272509946983406,0.6861650104946608,0.016832437662434648,0.00032045489323847404
2020-08-03 13:56:00.135,0.02264404296875,-0.9981231689453125,-0.0565032958984375,0.0032200280111283064,0.01239168830215931,0.008882706984877586,0.7273193302725903,0.6860914207712027,0.01688074252644508,0.0002981818860369589
2020-08-03 13:56:00.145,0.0223236083984375,-0.9994354248046875,-0.0556640625,0.0029907298739999533,0.009467803873121738,0.009236108511686325,0.7273619044690135,0.6860455871801439,0.01691063481130822,0.00029197271021764136
2020-08-03 13:56:00.155,0.0224456787109375,-0.999176025390625,-0.0556182861328125,0.004975051153451204,0.01306147314608097,0.011048655956983566,0.727363976309077,0.6860426434154979,0.01694294628321613,0.00028814023967202104
2020-08-03 13:56:00.165,0.022735595703125,-0.998016357421875,-0.0566558837890625,-0.0007371630053967237,0.009764746762812138,0.010453173890709877,0.7273701033016124,0.6860367267232905,0.016918952049372334,0.0003246445487078888
2020-08-03 13:56:00.175,0.0233001708984375,-0.998046875,-0.0576019287109375,-0.00031079089967533946,0.005435511935502291,0.012065717950463295,0.7274041961642831,0.6860020682671155,0.01685534919684155,0.0003805977752279425
2020-08-03 13:56:00.185,0.0234222412109375,-0.9998626708984375,-0.057159423828125,-0.0016170714516192675,0.003154514357447624,0.009254218079149723,0.7274423887627889,0.6859625800651454,0.016812111051863587,0.0004022525261586588
2020-08-03 13:56:00.195,0.02313232421875,-0.9994659423828125,-0.0569915771484375,0.001421861699782312,0.005116997752338648,0.005932990461587906,0.7274459202584933,0.6859590688064964,0.01680656985250654,0.0003959541699696204
2020-08-03 13:56:00.205,0.0230712890625,-0.9981231689453125,-0.05804443359375,0.0015238607302308083,0.006392918061465025,0.007513043470680714,0.7274356086990402,0.6859713556499168,0.01675027064896643,0.0004414362236561751
2020-08-03 13:56:00.215,0.0235595703125,-0.9987640380859375,-0.05914306640625,0.005632319487631321,0.009881659410893917,0.006795055698603392,0.7274128607929133,0.6859962804965289,0.016719195110588732,0.0004749385193137043
2020-08-03 13:56:00.225,0.0253143310546875,-0.9971923828125,-0.0595703125,0.004479703027755022,0.007333014160394669,0.009073922410607338,0.7273541769593544,0.6860593277370707,0.016685370220852584,0.0005077474341809406
2020-08-03 13:56:00.235,0.025360107421875,-0.997100830078125,-0.05963134765625,0.0044048684649169445,0.005161738954484463,0.0072840116918087006,0.7272908801596327,0.686127254995996,0.016647155437626085,0.0005323952202053502
2020-08-03 13:56:00.245,0.0238189697265625,-0.997100830078125,-0.059722900390625,0.0062187472358345985,0.004204066004604101,0.009680856950581074,0.7272515517593154,0.6861698870458584,0.016610730879866455,0.0005464402007644992
2020-08-03 13:56:00.257,0.022308349609375,-0.9971771240234375,-0.0597381591796875,0.0038549257442355156,0.0032445292454212904,0.00836791843175888,0.7272449309412067,0.6861774431842793,0.01658663082476114,0.0005417397413724056
2020-08-03 13:56:00.264,0.0212860107421875,-0.9973907470703125,-0.05963134765625,0.004035221878439188,0.0041521345265209675,0.007308512926101685,0.7272469357151231,0.6861753071966845,0.016585787907775602,0.0005233582128022427
2020-08-03 13:56:00.275,0.0211181640625,-0.998138427734375,-0.0599517822265625,0.0012777847005054355,0.0060022324323654175,0.007881625555455685,0.7272379678977712,0.6861851006399705,0.016579232666759425,0.0005256080617288359
2020-08-03 13:56:00.285,0.0213165283203125,-0.99871826171875,-0.058563232421875,0.0011102718999609351,0.008824117481708527,0.007404652889817953,0.7272487373109109,0.6861734783927,0.016584169037758185,0.0005323477604664614
2020-08-03 13:56:00.295,0.02093505859375,-1.0004425048828125,-0.057830810546875,0.0009749832679517567,0.010567689314484596,0.004859736189246178,0.7272778645321033,0.6861422408213002,0.01659956948477079,0.0005442922001475947
2020-08-03 13:56:00.305,0.0215911865234375,-0.9998016357421875,-0.059326171875,-0.0004996090428903699,0.012773585505783558,0.005227252375334501,0.7273209600068725,0.6860954875618,0.01664681199428482,0.0005393735473537085
2020-08-03 13:56:00.315,0.0224609375,-0.999664306640625,-0.0584564208984375,0.0014674017438665032,0.010155698284506798,0.006199306342750788,0.7273614084371722,0.6860511834304939,0.016703737179686776,0.0005112107530311927
2020-08-03 13:56:00.325,0.0228424072265625,-0.9991912841796875,-0.058319091796875,0.003531351685523987,0.0130920996889472,0.00657481187954545,0.7273901582056644,0.6860198519432567,0.016737232442229986,0.0005096540152087475
2020-08-03 13:56:00.335,0.0229644775390625,-0.9984130859375,-0.0605010986328125,0.0037609159480780363,0.01038393098860979,0.007539941463619471,0.7274245554296939,0.6859831792400185,0.016743422648264106,0.0005245850843745518
2020-08-03 13:56:00.345,0.02374267578125,-0.9981231689453125,-0.060546875,0.0016072177095338702,0.009156480431556702,0.00863023940473795,0.7274545241295899,0.6859519208461997,0.016720105084506658,0.0005612426176752842
2020-08-03 13:56:00.354,0.024658203125,-0.997650146484375,-0.0601348876953125,0.0015305186389014125,0.010720554739236832,0.009995908476412296,0.7274910699799643,0.6859139309014191,0.016691366726260447,0.0006063079482157493
2020-08-03 13:56:00.365,0.0251007080078125,-0.9979248046875,-0.060211181640625,0.002755306428298354,0.0062432484701275826,0.008971923030912876,0.7275083058831395,0.685896386010042,0.01665763199411341,0.0006359111324482896
2020-08-03 13:56:00.375,0.0233154296875,-0.998504638671875,-0.06097412109375,0.006265885196626186,0.009580189362168312,0.0111647704616189,0.7274968966359648,0.6859091796652943,0.016624094411953217,0.0006733712585334541
2020-08-03 13:56:00.385,0.0235443115234375,-0.99908447265625,-0.0614166259765625,0.006592655088752508,0.008797219954431057,0.011678493581712246,0.7274953976537628,0.6859115394358921,0.016590756192139115,0.0007146010151981297
2020-08-03 13:56:00.395,0.02392578125,-0.9991302490234375,-0.062103271484375,0.0049319081008434296,0.009955162182450294,0.009668606333434582,0.7275023561078788,0.6859044120321212,0.01657845709742856,0.0007463045030283097
2020-08-03 13:56:00.404,0.0240020751953125,-0.9989013671875,-0.0633392333984375,0.0054815844632685184,0.011237740516662598,0.012711800634860992,0.7274994082239306,0.6859074898471714,0.01658031141769469,0.0007739049700145276
2020-08-03 13:56:00.415,0.0237579345703125,-0.9980010986328125,-0.06353759765625,0.0031726236920803785,0.00800279900431633,0.013016199693083763,0.727515828016255,0.6858904845101164,0.016566558501797002,0.0008019449878269519
2020-08-03 13:56:00.425,0.023162841796875,-0.9976959228515625,-0.0613250732421875,0.0017712684348225594,0.00947765726596117,0.013668141327798367,0.7275535602097517,0.6858505869886358,0.01655807117979785,0.0008272625844484511
2020-08-03 13:56:00.435,0.02313232421875,-0.997467041015625,-0.06109619140625,0.003498594742268324,0.007149788551032543,0.013950170017778873,0.7275785959249169,0.685824137134875,0.016551614342152257,0.0008424424368923024
2020-08-03 13:56:00.445,0.0240325927734375,-0.9971771240234375,-0.061370849609375,0.0004950816510245204,0.006851780693978071,0.0132124749943614,0.7276082902846527,0.6857927212159453,0.01655179195917679,0.0008366017328960808
2020-08-03 13:56:00.455,0.024017333984375,-0.9976043701171875,-0.061370849609375,0.002101234160363674,0.004070109222084284,0.010595119558274746,0.7276348961940259,0.6857648052120932,0.01653823092729795,0.0008196881784135199
2020-08-03 13:56:00.465,0.02606201171875,-0.9993743896484375,-0.0623016357421875,0.0046152579598128796,0.0005715143634006381,0.01059059239923954,0.7276590647676634,0.6857399106021779,0.016506010679906015,0.0008022122303052151
2020-08-03 13:56:00.475,0.027191162109375,-0.9979095458984375,-0.0636444091796875,0.005952164996415377,0.0013022858183830976,0.009731989353895187,0.7276812539640969,0.6857170694271059,0.016481641997282578,0.0007756580215315268
2020-08-03 13:56:00.485,0.02593994140625,-0.998016357421875,-0.0627899169921875,0.010024404153227806,-0.0005579322460107505,0.01113307848572731,0.7276993634352227,0.6856985542437027,0.01644931247662288,0.0007513390545351439
2020-08-03 13:56:00.495,0.0254974365234375,-0.997467041015625,-0.06390380859375,0.009148756973445415,-0.005072522908449173,0.010151970200240612,0.7277296763495044,0.6856674378378166,0.016408879552109318,0.0007081658580361961
2020-08-03 13:56:00.505,0.0251007080078125,-0.99761962890625,-0.0629425048828125,0.007224889472126961,-0.008833705447614193,0.008085889741778374,0.7277515215040116,0.6856456447453684,0.016356258407759488,0.0006551524750625492
2020-08-03 13:56:00.515,0.0239105224609375,-0.9983673095703125,-0.06317138671875,0.007729825098067522,-0.006376939360052347,0.006699447985738516,0.727761911793897,0.6856356995789904,0.016309905344223552,0.0006080470087892163
2020-08-03 13:56:00.525,0.02301025390625,-0.9986114501953125,-0.0645751953125,0.003367034485563636,-0.006110356654971838,0.005594768561422825,0.7277850792712688,0.6856119724467031,0.0162747212036048,0.0005541057059538553
2020-08-03 13:56:00.535,0.0227813720703125,-0.9985198974609375,-0.063079833984375,0.0023379891645163298,-0.0008056062506511807,0.006877081003040075,0.7278099071395794,0.6855861797275309,0.016252960101186518,0.0005110206503684909
2020-08-03 13:56:00.545,0.0208282470703125,-0.998687744140625,-0.0617828369140625,0.0029907298739999533,0.0017201356822624803,0.005303418729454279,0.7278378266051444,0.685556606159315,0.01625360648483078,0.0004635590974353919
2020-08-03 13:56:00.555,0.0217132568359375,-0.9986572265625,-0.06085205078125,0.0030160299502313137,-0.00017736652807798237,0.006592655088752508,0.7278780139141358,0.68551372549873,0.016265591308945143,0.0004069579763414863
2020-08-03 13:56:00.565,0.0215301513671875,-0.998779296875,-0.0615234375,0.0023931164760142565,0.0038067223504185677,0.007692008279263973,0.7279209980223914,0.6854676690749247,0.016278976788411184,0.0003659476894792967
2020-08-03 13:56:00.575,0.0230865478515625,-0.99993896484375,-0.0618896484375,0.0030362699180841446,0.004459729418158531,0.007249390706419945,0.7279544446455801,0.6854319982603586,0.0162861399872695,0.00033506566552267934
2020-08-03 13:56:00.585,0.0241241455078125,-1.0011749267578125,-0.064910888671875,0.00589703768491745,0.00395692465826869,0.008900816552340984,0.7279839083681104,0.6854008633032252,0.0162827071314791,0.0003133807459334264
2020-08-03 13:56:00.595,0.0240325927734375,-1.0013275146484375,-0.064971923828125,0.00435986090451479,0.004713528789579868,0.008469651453197002,0.7280078311575674,0.6853755391680774,0.016276831699729925,0.0002965287265570462
2020-08-03 13:56:00.605,0.0240936279296875,-0.9990386962890625,-0.0626220703125,0.003463441040366888,0.001517202821560204,0.01152562815696001,0.7280460380850561,0.6853359332956707,0.016238522932687627,0.0002916633275463123
2020-08-03 13:56:00.615,0.0241241455078125,-0.99822998046875,-0.06103515625,0.0032826124224811792,-0.001853293739259243,0.013289440423250198,0.7280847572684666,0.6852961386163771,0.01618081859776643,0.0002837937187294432
2020-08-03 13:56:00.625,0.0242156982421875,-0.9970855712890625,-0.0601043701171875,0.0014759238110855222,-0.0033185649663209915,0.01315068919211626,0.7281105266164692,0.6852704154374731,0.016112667781179264,0.00028223540469973253
2020-08-03 13:56:00.635,0.0236358642578125,-0.9958038330078125,-0.0601806640625,0.0032676986884325743,-0.0014415690675377846,0.014877749606966972,0.7281241232121909,0.685257687697858,0.016039394656872433,0.00029186496795783994
2020-08-03 13:56:00.645,0.0259857177734375,-0.994110107421875,-0.0608978271484375,0.0020511667244136333,-0.0007843009079806507,0.013793310150504112,0.7281402439464875,0.6852419532678584,0.015978471704547373,0.0002896267224454449
2020-08-03 13:56:00.655,0.02618408203125,-0.995941162109375,-0.063690185546875,0.0003664509567897767,0.00034194986801594496,0.01140046026557684,0.7281641306925816,0.6852177025031627,0.015927014718674942,0.0002859562010768396
2020-08-03 13:56:00.665,0.0249176025390625,-0.9980926513671875,-0.0635528564453125,0.004179831128567457,-0.0003121224872302264,0.013442838564515114,0.7281848944026316,0.6851965539552966,0.01589052254679687,0.0002690883935574824
2020-08-03 13:56:00.675,0.023651123046875,-0.997406005859375,-0.063873291015625,0.005629123654216528,0.0021781993564218283,0.01209581084549427,0.7282086802212647,0.6851719630024576,0.0158578257459818,0.00025374360790869285
2020-08-03 13:56:00.684,0.020172119140625,-0.99688720703125,-0.0641632080078125,0.011671570129692554,6.125270738266408e-05,0.00993012823164463,0.7282044515280893,0.6851771739667898,0.01582533886791285,0.0002281402603380011
2020-08-03 13:56:00.695,0.018463134765625,-0.9967803955078125,-0.0638580322265625,0.011236143298447132,-0.0019981698133051395,0.009123457595705986,0.7281931326716444,0.685190024995854,0.015791991033590864,0.00019719758196570965
2020-08-03 13:56:00.705,0.0188446044921875,-0.9959564208984375,-0.061859130859375,0.011900868266820908,-0.0022008363157510757,0.008311991579830647,0.7281688365944513,0.6852165184709349,0.015764380104674926,0.00015970900719981806
2020-08-03 13:56:00.715,0.0208892822265625,-0.995086669921875,-0.0618896484375,0.008412925526499748,-0.0024682176299393177,0.007133277133107185,0.7281603194767828,0.6852261140798451,0.015739195721367855,0.00011863416996583422
2020-08-03 13:56:00.725,0.0225372314453125,-0.996490478515625,-0.062225341796875,0.005075718741863966,-0.0028099012561142445,0.004895422607660294,0.7281609233476984,0.6852256792647252,0.015730564557753457,6.230539735559149e-05
2020-08-03 13:56:00.734,0.0233917236328125,-0.9970245361328125,-0.06103515625,0.005271194502711296,-4.6072687837295234e-05,0.0034232272300869226,0.7281788184909243,0.6852064392970078,0.015739525605257536,5.146653044973276e-07
2020-08-03 13:56:00.745,0.0216217041015625,-0.998504638671875,-0.0619049072265625,0.005089300684630871,0.0010751180816441774,0.003477555699646473,0.7281995757099798,0.6851842528634332,0.015745602368061135,-5.122714881732743e-05
2020-08-03 13:56:00.755,0.0196685791015625,-0.9989471435546875,-0.0623321533203125,0.005389438942074776,0.0025774072855710983,0.005422728601843119,0.7282157750845699,0.6851670618645479,0.015742551232960304,-8.544550949412047e-05
2020-08-03 13:56:00.765,0.0214996337890625,-1.001007080078125,-0.06195068359375,0.007306382525712252,0.003221093211323023,0.004848284646868706,0.7282295098004382,0.6851527652933287,0.015731620193451548,-0.00010778511551661103
2020-08-03 13:56:00.775,0.02239990234375,-1.0001220703125,-0.0635833740234375,0.008914931677281857,0.004054130055010319,0.00495081627741456,0.7282384366257862,0.6851438076149227,0.015707705633054153,-0.00011667623811649139
2020-08-03 13:56:00.784,0.0225830078125,-0.99945068359375,-0.06396484375,0.007458715233951807,0.0020445086993277073,0.005599828902631998,0.7282441788249131,0.6851385107462197,0.015671574808377872,-0.00012341424888899326
2020-08-03 13:56:00.795,0.0214691162109375,-0.998382568359375,-0.0631256103515625,0.008519185706973076,0.0010080065112560987,0.0054482948035001755,0.7282367499522779,0.6851470530813315,0.01563965852582586,-0.00013542257615796298
2020-08-03 13:56:00.805,0.0208282470703125,-0.9984588623046875,-0.0641326904296875,0.006431001238524914,0.0017361147329211235,0.007583617232739925,0.7282413157112799,0.6851427237691095,0.015617536915776241,-0.00014855724016253104
2020-08-03 13:56:00.815,0.0205230712890625,-0.9999237060546875,-0.062164306640625,0.006845389027148485,0.007467503659427166,0.0091745899990201,0.7282413673373206,0.6851428481964588,0.015612033883091458,-0.00014787951362647302
2020-08-03 13:56:00.825,0.0210418701171875,-0.999267578125,-0.0604705810546875,0.010696852579712868,0.007674963679164648,0.010995925404131413,0.7282288774795483,0.6851562080286286,0.015606339338800342,-0.0001401340529255373
2020-08-03 13:56:00.835,0.0211029052734375,-0.998260498046875,-0.061187744140625,0.010062221437692642,0.009111473336815834,0.010209760628640652,0.7282188309043289,0.6851671889515203,0.01559512205520991,-0.00011208817145419783
2020-08-03 13:56:00.845,0.0189666748046875,-0.9971466064453125,-0.0598602294921875,0.010130397975444794,0.015851400792598724,0.008227303624153137,0.7282057306635112,0.6851806905225588,0.015612819106627115,-7.276469784646931e-05
2020-08-03 13:56:00.855,0.018585205078125,-0.9982757568359375,-0.06146240234375,0.010362093336880207,0.018085526302456856,0.008075237274169922,0.7281972071295861,0.685189085405336,0.015644028647698496,-3.738389891253836e-05
2020-08-03 13:56:00.865,0.0206298828125,-0.99993896484375,-0.0626983642578125,0.009207612834870815,0.015479623340070248,0.00785525981336832,0.7281987316971904,0.6851868569561,0.01567127853873576,-9.935657277684515e-06
2020-08-03 13:56:00.875,0.021392822265625,-0.9995880126953125,-0.0622711181640625,0.010402306914329529,0.014875618740916252,0.007803594693541527,0.7281927964823137,0.6851925663218612,0.015697692402496282,1.8249926863297614e-05
2020-08-03 13:56:00.884,0.0211639404296875,-0.9996185302734375,-0.06146240234375,0.009308280423283577,0.014127536676824093,0.0060088904574513435,0.7281915399978809,0.6851934895804037,0.015720523194570752,4.395259025691961e-05
2020-08-03 13:56:00.895,0.0224151611328125,-0.999481201171875,-0.0607757568359375,0.009852631017565727,0.012270248495042324,0.007278152741491795,0.7281904578725317,0.6851943810989058,0.01573086650477581,7.003451910214675e-05
2020-08-03 13:56:00.905,0.024383544921875,-0.9997406005859375,-0.0617523193359375,0.012078766711056232,0.013199425302445889,0.007919175550341606,0.7281730280734356,0.6852126924310222,0.01574001698556151,9.737872038947243e-05
2020-08-03 13:56:00.915,0.024444580078125,-0.997955322265625,-0.06146240234375,0.011058776639401913,0.00908643938601017,0.008768990635871887,0.7281559217191037,0.6852308338676321,0.01573828779429446,0.00011750568650629838
2020-08-03 13:56:00.925,0.0244598388671875,-0.9963531494140625,-0.062957763671875,0.011414840817451477,0.008235558867454529,0.00899615790694952,0.7281324098319347,0.6852559356914615,0.015732672877909144,0.00013995831991857506
2020-08-03 13:56:00.935,0.0234832763671875,-0.9961090087890625,-0.0634918212890625,0.012920325621962547,0.009466738440096378,0.008322378620505333,0.7281067356483794,0.6852834126453387,0.01572784082673999,0.0001688623507922777
2020-08-03 13:56:00.945,0.0234375,-0.996612548828125,-0.0631103515625,0.01314989011734724,0.010273942723870277,0.006935936864465475,0.7280865806624056,0.6853047022530308,0.015732114251760458,0.00018971807691300566
2020-08-03 13:56:00.955,0.0224151611328125,-0.99853515625,-0.064300537109375,0.015983493998646736,0.01122016366571188,0.0070275492034852505,0.7280580933248015,0.6853346706159522,0.015743496727079052,0.00020441977932794675
2020-08-03 13:56:00.965,0.0224456787109375,-0.9977264404296875,-0.0637969970703125,0.01823839172720909,0.01293683797121048,0.005901032127439976,0.7280257034725159,0.6853685900650839,0.01576356528861666,0.0002164331698042525
2020-08-03 13:56:00.975,0.0221405029296875,-0.9972076416015625,-0.0641937255859375,0.014702247455716133,0.01407560519874096,0.004500742070376873,0.7279948572934088,0.6854006701753097,0.015793030838087578,0.00022390839668804362
2020-08-03 13:56:00.985,0.02178955078125,-0.9965362548828125,-0.063323974609375,0.018189655616879463,0.009556753560900688,0.004012584686279297,0.7279560473280453,0.6854412669281766,0.01582312573060448,0.00020912094271635824
2020-08-03 13:56:00.995,0.023193359375,-0.996612548828125,-0.062530517578125,0.016396017745137215,0.007984423078596592,0.0003731088654603809,0.7279247682623231,0.6854737191374205,0.015856425527253828,0.00018249764281930148
2020-08-03 13:56:01.005,0.0229949951171875,-0.997283935546875,-0.0634613037109375,0.01410756353288889,0.008587363176047802,0.0012269183062016964,0.7279053216616079,0.6854935512249806,0.01588828716970138,0.0001583943396105316
2020-08-03 13:56:01.014,0.023040771484375,-0.996978759765625,-0.061920166015625,0.011580755934119225,0.008739429526031017,0.003917243797332048,0.7278973701665377,0.6855014680199004,0.01591453935989505,0.00014014887663357269
2020-08-03 13:56:01.025,0.023529052734375,-0.9976806640625,-0.0606842041015625,0.01309289876371622,0.009518669918179512,0.002487658755853772,0.7278828556228635,0.6855163263353443,0.015938507588684855,0.00012748056107441882
2020-08-03 13:56:01.035,0.024139404296875,-0.9988555908203125,-0.0600738525390625,0.014142983593046665,0.009404687210917473,0.004269846249371767,0.7278675848489594,0.6855320611569914,0.015958911477533155,0.00011828672616103798
2020-08-03 13:56:01.045,0.023834228515625,-0.9998626708984375,-0.0603485107421875,0.015837285667657852,0.005772934295237064,0.004576642066240311,0.7278507302654644,0.6855497131211248,0.015968373657881237,0.00010691714323440328
2020-08-03 13:56:01.055,0.0250396728515625,-1.000030517578125,-0.0601654052734375,0.01637631095945835,0.007024087477475405,0.003625893732532859,0.7278282768207525,0.685573358422192,0.015980140829809204,9.517704940950611e-05
2020-08-03 13:56:01.064,0.0247650146484375,-1.001190185546875,-0.06085205078125,0.01549214031547308,0.010629208758473396,0.004733502399176359,0.7278089293223747,0.6855935386339708,0.015992568521945555,9.808514178030921e-05
2020-08-03 13:56:01.075,0.0243988037109375,-0.9994049072265625,-0.0624237060546875,0.012308597564697266,0.008046208880841732,0.006044842768460512,0.7277951715311699,0.6856079043871327,0.01600268680977389,9.708018755556942e-05
2020-08-03 13:56:01.085,0.02325439453125,-0.997955322265625,-0.061065673828125,0.014552311040461063,0.011597000993788242,0.0065108961425721645,0.7277815059411835,0.6856218763622499,0.01602599355885836,0.00010342962126610664
2020-08-03 13:56:01.095,0.0208587646484375,-0.9976348876953125,-0.0618438720703125,0.012753346003592014,0.014044712297618389,0.004824049770832062,0.7277686624679938,0.6856346820122988,0.016062287803847185,0.00011589305014959687
2020-08-03 13:56:01.105,0.0202484130859375,-0.99786376953125,-0.0627593994140625,0.011374893598258495,0.013575729914009571,0.00561021501198411,0.727751827488556,0.6856517646773953,0.016094779277689576,0.00013322346305206546
2020-08-03 13:56:01.115,0.02105712890625,-0.9986114501953125,-0.0627899169921875,0.011435347609221935,0.016171779483556747,0.004997687879949808,0.727737324793849,0.6856661640808209,0.016137465777511024,0.00014991354268968464
2020-08-03 13:56:01.125,0.021728515625,-0.9986572265625,-0.0631103515625,0.008891762234270573,0.014464693143963814,0.004211256746202707,0.7277296395265574,0.685673372586781,0.016178304461977676,0.0001647335979748834
2020-08-03 13:56:01.135,0.0222015380859375,-0.9976959228515625,-0.06207275390625,0.009287241846323013,0.01600879430770874,0.0041579934768378735,0.7277258257806134,0.6856763215352738,0.01622652451275547,0.00017981254246068716
2020-08-03 13:56:01.145,0.0238189697265625,-0.9981842041015625,-0.0606842041015625,0.003924167715013027,0.01525671686977148,0.00285011506639421,0.7277325832404768,0.6856678876476905,0.016279598066985916,0.0001830337058789204
2020-08-03 13:56:01.155,0.02618408203125,-0.9990997314453125,-0.0621185302734375,0.006503173150122166,0.01691586710512638,0.001740642124786973,0.7277382212450217,0.6856604064907569,0.01633275735412703,0.0001851417153025947
2020-08-03 13:56:01.165,0.027374267578125,-0.9998016357421875,-0.062957763671875,0.002511360915377736,0.014286261051893234,0.0023435817565768957,0.7277545466626617,0.6856422036140786,0.01637512783284705,0.00018576896558506611
2020-08-03 13:56:01.175,0.0276641845703125,-0.9996795654296875,-0.06231689453125,0.0013845774810761213,0.008723716251552105,0.0015281217638403177,0.7277734800338707,0.6856215936914049,0.01639918217234456,0.00017753404919075913
2020-08-03 13:56:01.185,0.0280609130859375,-0.99945068359375,-0.062896728515625,0.0007709851488471031,0.012057728134095669,0.0011608719360083342,0.7277972363745254,0.6855958546636792,0.0164184092579626,0.00017987409657018415
2020-08-03 13:56:01.195,0.0265350341796875,-0.998748779296875,-0.06329345703125,0.0014769891276955605,0.011510182172060013,0.002660498023033142,0.7278230376322081,0.6855680791870259,0.016433403418140646,0.00018572813817291194
2020-08-03 13:56:01.205,0.0256805419921875,-0.9976654052734375,-0.0624542236328125,0.004492752719670534,0.007787881884723902,0.0041494714096188545,0.7278430213101054,0.6855467305449394,0.016444263408037445,0.0001844770260301387
2020-08-03 13:56:01.215,0.0251922607421875,-0.997528076171875,-0.060699462890625,0.004202201962471008,0.013262009248137474,0.0035800873301923275,0.7278610754555975,0.6855269396837711,0.016469630405596982,0.00019015878610992645
2020-08-03 13:56:01.225,0.025543212890625,-0.9990386962890625,-0.0599517822265625,0.0005275722360238433,0.013134710490703583,0.0006641923682764173,0.7278790082881303,0.6855070233810256,0.01650564726951577,0.00019095771710603976
2020-08-03 13:56:01.235,0.024200439453125,-1.0000762939453125,-0.0595855712890625,0.002243180526420474,0.016499347984790802,0.001990712946280837,0.7278962347015169,0.6854873739355478,0.016559494027355758,0.00020112367094078307
2020-08-03 13:56:01.245,0.0218353271484375,-0.999420166015625,-0.0577239990234375,0.002189384773373604,0.021193435415625572,0.0007576693315058947,0.7279154259522908,0.6854650089203989,0.016641460908382765,0.0002165415758550518
2020-08-03 13:56:01.255,0.0210418701171875,-0.99847412109375,-0.0550384521484375,0.0034322820138186216,0.026487799361348152,0.0028242822736501694,0.7279298684582546,0.6854473751897691,0.016736725980686734,0.0002505080058709565
2020-08-03 13:56:01.265,0.0205841064453125,-0.997894287109375,-0.055084228515625,0.0025859293527901173,0.02484356425702572,0.002802444389089942,0.7279461012062742,0.6854276634764663,0.01683634502822176,0.0002843064510397071
2020-08-03 13:56:01.275,0.021087646484375,-0.99755859375,-0.0553436279296875,0.0014271880500018597,0.030360834673047066,0.004480235744267702,0.727970150716235,0.6853994387740127,0.016945146008385415,0.00033766761669377053
2020-08-03 13:56:01.285,0.0212249755859375,-0.998260498046875,-0.054107666015625,-0.0012578109744936228,0.03308258578181267,0.002183792181313038,0.7280011166066604,0.6853634347713153,0.017061568175732927,0.00040100064889887765
2020-08-03 13:56:01.295,0.0211639404296875,-0.9993438720703125,-0.0531463623046875,-0.0009137305896729231,0.034393392503261566,0.0023339942563325167,0.7280256869519374,0.6853343790300042,0.017180194815920924,0.0004708721303264222
2020-08-03 13:56:01.305,0.0238189697265625,-0.999664306640625,-0.053558349609375,-0.0013377057621255517,0.035111915320158005,0.004357464145869017,0.7280462444672148,0.6853095370505493,0.017295328091843358,0.0005474209612996179
2020-08-03 13:56:01.315,0.0246734619140625,-0.9998626708984375,-0.0542755126953125,0.0015819176333025098,0.030717698857188225,0.0035542547702789307,0.7280568432995016,0.6852956952062095,0.01739761298606215,0.0006141893497938321
2020-08-03 13:56:01.325,0.0266876220703125,-0.9997711181640625,-0.0547943115234375,0.0057249972596764565,0.027533888816833496,0.004637895151972771,0.7280564743542904,0.6852938752226947,0.01748127761868485,0.0006809375243117411
2020-08-03 13:56:01.335,0.0278167724609375,-0.9976806640625,-0.056060791015625,0.00609437795355916,0.02744334191083908,0.003192331176251173,0.7280431672995433,0.6853059325215008,0.017560863238980852,0.00075300147887177
2020-08-03 13:56:01.344,0.0279083251953125,-0.9974365234375,-0.0563812255859375,0.004710865672677755,0.027035079896450043,0.005490106530487537,0.7280246398446211,0.6853236762799488,0.0176333823438969,0.000827989039793699
2020-08-03 13:56:01.355,0.02789306640625,-0.999053955078125,-0.055755615234375,0.005565740168094635,0.029469208791851997,0.006127667147666216,0.7280051485862263,0.6853424798653628,0.017701955536614748,0.0009088916650064408
2020-08-03 13:56:01.365,0.0280914306640625,-0.9985809326171875,-0.0561065673828125,0.004750546533614397,0.025116005912423134,0.007410778198391199,0.7279871080213949,0.6853600888291304,0.017760614943881113,0.0009830285502511575
2020-08-03 13:56:01.375,0.027923583984375,-0.9991912841796875,-0.0571746826171875,0.005659483373165131,0.026739468798041344,0.007749265991151333,0.7279617614278868,0.6853854563676022,0.01781847346812658,0.0010600314116626349
2020-08-03 13:56:01.385,0.02740478515625,-1.0006103515625,-0.0561676025390625,0.004255465231835842,0.025778867304325104,0.006126602180302143,0.7279381292988671,0.6854096224491193,0.01784675561172771,0.0010977531876228555
2020-08-03 13:56:01.394,0.0272674560546875,-1.0003204345703125,-0.05633544921875,0.004876248072832823,0.024049676954746246,0.004877579398453236,0.7279169736007551,0.6854304013523733,0.01791463024622107,0.0011529611230170394
2020-08-03 13:56:01.405,0.0273590087890625,-0.999237060546875,-0.0569305419921875,0.006293315906077623,0.022651782259345055,0.004667988512665033,0.7279003320258688,0.6854452135546819,0.018018424333002728,0.0012095396763236116
2020-08-03 13:56:01.415,0.0281982421875,-0.9984283447265625,-0.0584716796875,0.0016474314033985138,0.01841762289404869,0.0036453348584473133,0.727896088730731,0.6854480185568783,0.018078865282323033,0.001225661837637418
2020-08-03 13:56:01.424,0.0294342041015625,-0.99749755859375,-0.0573272705078125,0.000984570593573153,0.01341460831463337,0.0015574166318401694,0.7278920959403081,0.6854515048136992,0.018111832745749724,0.0012205163945167288
2020-08-03 13:56:01.435,0.030029296875,-0.998687744140625,-0.0571441650390625,-0.0012697952333837748,0.010787933133542538,0.0004884237423539162,0.7279125457917263,0.6854278506232454,0.018181791900790445,0.0011999305187512183
2020-08-03 13:56:01.445,0.0303802490234375,-0.9989166259765625,-0.058380126953125,-0.00047058056225068867,0.010078732855618,0.002957440447062254,0.7279209341604739,0.6854178883575758,0.018222922902709646,0.0011810858391082249
2020-08-03 13:56:01.455,0.0310211181640625,-0.998931884765625,-0.0584259033203125,0.0001685781026026234,0.006768157705664635,0.0037649108562618494,0.7279300607863205,0.6854075528513079,0.01825019512398557,0.0011552318526316463
2020-08-03 13:56:01.465,0.030181884765625,-0.9987335205078125,-0.0593414306640625,-0.0008815063047222793,0.008080563507974148,0.0006591323763132095,0.7279445885005451,0.6853913637490008,0.018278480669441825,0.0011262961894292533
2020-08-03 13:56:01.475,0.0297088623046875,-0.9996490478515625,-0.0594482421875,-0.0008468852029182017,0.006370014976710081,0.0034413367975503206,0.7279580241165584,0.6853766157200175,0.01829575649595555,0.0010989855070254332
2020-08-03 13:56:01.485,0.028961181640625,-0.9998779296875,-0.060302734375,-0.0028535770252346992,0.004948153160512447,0.004192081745713949,0.7279764722413969,0.685356935464444,0.018306672461551196,0.0010712188083004956
2020-08-03 13:56:01.495,0.02838134765625,-0.99920654296875,-0.05999755859375,-0.005878395400941372,0.00600462919101119,0.00583605095744133,0.7280070215410658,0.6853241579654035,0.0183212323555611,0.0010484625408312721
2020-08-03 13:56:01.505,0.0281829833984375,-1.000030517578125,-0.059295654296875,-0.006852579768747091,0.00848349928855896,0.005313538946211338,0.7280413720617104,0.6852870058381095,0.018347882285461158,0.0010319335950254652
2020-08-03 13:56:01.515,0.027862548828125,-1.0003814697265625,-0.058502197265625,-0.0038456046022474766,0.007047789636999369,0.00580915343016386,0.7280653697150645,0.6852606738774104,0.018376962983378972,0.0010137864324082993
2020-08-03 13:56:01.525,0.0272979736328125,-1.00054931640625,-0.0584869384765625,-0.0035033884923905134,0.007742607966065407,0.0060206083580851555,0.7280739064737666,0.6852509683692045,0.01840135625625859,0.000997525771470633
2020-08-03 13:56:01.535,0.028076171875,-0.999420166015625,-0.0589447021484375,-0.005172391422092915,0.003920439630746841,0.006970291491597891,0.7281179015644157,0.6852037957866852,0.01841840943095288,0.0009617771565674903
2020-08-03 13:56:01.545,0.028594970703125,-0.9988250732421875,-0.0600128173828125,-0.0068147629499435425,0.003744937013834715,0.00625975988805294,0.7281539031385255,0.6851653763833065,0.018426131685934093,0.0009214721123633231
2020-08-03 13:56:01.555,0.0290374755859375,-0.99737548828125,-0.06109619140625,-0.007617439609020948,-0.0003070624661631882,0.005319397896528244,0.7281964154382558,0.6851203463462349,0.018423228116431264,0.0008699106366831175
2020-08-03 13:56:01.565,0.0284423828125,-0.99810791015625,-0.0599822998046875,-0.011119762435555458,-0.003582217963412404,0.004314321093261242,0.7282487746063583,0.6850649623337337,0.0184137396949116,0.000812318920218243
2020-08-03 13:56:01.575,0.0277252197265625,-0.99810791015625,-0.0616912841796875,-0.01324043795466423,-0.0030629015527665615,0.003227218519896269,0.72831261076987,0.6849974845181436,0.01840367572905814,0.0007570618586700256
2020-08-03 13:56:01.585,0.028289794921875,-0.9971771240234375,-0.062347412109375,-0.011608985252678394,0.0004215783847030252,0.0044293696992099285,0.7283695573847386,0.6849371119371432,0.018397671545477202,0.0007097978427462633
2020-08-03 13:56:01.595,0.0281524658203125,-0.99871826171875,-0.0627593994140625,-0.009463809430599213,-0.001540638622827828,0.0035475967451930046,0.7283902315751016,0.6849151130963529,0.018397943318625157,0.0006802872627598763
2020-08-03 13:56:01.605,0.0267791748046875,-0.9991302490234375,-0.0643768310546875,-0.009710950776934624,-0.0004649879119824618,0.0073079802095890045,0.7284595768176826,0.6848421190044728,0.018370376015928606,0.0006229016740585801
2020-08-03 13:56:01.615,0.0275726318359375,-0.998077392578125,-0.064788818359375,-0.00836632028222084,-0.0006482133758254349,0.008562595583498478,0.7284997639308433,0.6848000873424673,0.01834570678340912,0.0005865600844993275
2020-08-03 13:56:01.625,0.0283203125,-0.998626708984375,-0.065521240234375,-0.007515440694987774,-0.004605138208717108,0.008219580166041851,0.7285388353502401,0.6847594635286618,0.01831284861247329,0.0005386645348357845
2020-08-03 13:56:01.635,0.0285186767578125,-0.999542236328125,-0.0670166015625,-0.007535680662840605,-0.004224305972456932,0.007822769694030285,0.7285595205534852,0.6847376370278483,0.01830354961806456,0.0005082189717685072
2020-08-03 13:56:01.645,0.0299835205078125,-0.9984283447265625,-0.0669708251953125,-0.005544967483729124,-0.00618146313354373,0.00729359919205308,0.728597250996821,0.684698269744773,0.018275349212568976,0.0004577742540341368
2020-08-03 13:56:01.655,0.0303802490234375,-0.9981536865234375,-0.067718505859375,-0.00466532539576292,-0.004756938200443983,0.00660677021369338,0.7286297850123433,0.6846646949705221,0.018241200274098333,0.0004031571860577416
2020-08-03 13:56:01.665,0.0298919677734375,-0.9990234375,-0.066650390625,-0.004795554094016552,-0.009257947094738483,0.007535147946327925,0.7286683972270139,0.6846247123921247,0.018199448388782947,0.00034870112448206515
2020-08-03 13:56:01.674,0.0301666259765625,-0.9986572265625,-0.06781005859375,-0.002537992550060153,-0.012779178097844124,0.007119428366422653,0.7287012085618064,0.6845913202569415,0.018144732847022935,0.00028066137653611975
2020-08-03 13:56:01.685,0.0287933349609375,-0.9982452392578125,-0.06854248046875,0.0007374293054454029,-0.01221698522567749,0.009021990932524204,0.7287346864113065,0.684557441559524,0.018075657966232714,0.0002167639068932966
2020-08-03 13:56:01.695,0.02947998046875,-0.998077392578125,-0.0703887939453125,-0.0017480988753959537,-0.014815431088209152,0.010069412179291248,0.7287667241240967,0.6845253326958942,0.018003087013794883,0.00014861445675267565
2020-08-03 13:56:01.705,0.0316009521484375,-0.9977264404296875,-0.071624755859375,-8.921589324017987e-05,-0.01555099617689848,0.010394318029284477,0.728800305466185,0.6844917121658647,0.017922215429671838,7.593056793495437e-05
2020-08-03 13:56:01.715,0.0318603515625,-0.9969329833984375,-0.0724334716796875,0.0005749764968641102,-0.01842188462615013,0.011942945420742035,0.7288309538507096,0.6844613893035303,0.017834654346777445,-7.844497699836112e-07
2020-08-03 13:56:01.724,0.0310516357421875,-0.996612548828125,-0.0726165771484375,0.003184075467288494,-0.016759272664785385,0.010877680964767933,0.7288622727367724,0.6844304799732366,0.01774121582262423,-7.875639367688897e-05
2020-08-03 13:56:01.735,0.0282440185546875,-0.9969024658203125,-0.071319580078125,0.0009158611064776778,-0.01647964119911194,0.011802596971392632,0.7288936033099094,0.684399406107011,0.01765162478373368,-0.00016278128522553663
2020-08-03 13:56:01.744,0.0266571044921875,-0.9973297119140625,-0.067901611328125,0.0005275722360238433,-0.011409248225390911,0.009522398933768272,0.728929497181546,0.6843629177440786,0.01758143596122969,-0.00023442831167226098
2020-08-03 13:56:01.755,0.025909423828125,-0.99755859375,-0.065887451171875,-0.0033300165086984634,-0.00917219277471304,0.007903463207185268,0.7289680454613202,0.6843233800922127,0.017522153158752257,-0.00030875999760766014
2020-08-03 13:56:01.765,0.025848388671875,-0.9979095458984375,-0.065399169921875,-0.004485029727220535,-0.005251753609627485,0.008441155776381493,0.7290216227623355,0.6842675517575103,0.017474476354608068,-0.0003685554648872255
2020-08-03 13:56:01.775,0.025604248046875,-0.998443603515625,-0.0650634765625,-0.007270962465554476,-0.004700212739408016,0.0065319351851940155,0.729082370213443,0.6842036461917144,0.017439471866679837,-0.00041968094995471945
2020-08-03 13:56:01.785,0.0252532958984375,-1.00067138671875,-0.06756591796875,-0.0062941149808466434,-0.0021632856223732233,0.007904262281954288,0.7291541541636969,0.6841274658181443,0.01742431968034272,-0.0004664991677535493
2020-08-03 13:56:01.795,0.025970458984375,-1.00079345703125,-0.070892333984375,-0.0013723268639296293,-0.002436526119709015,0.008245679549872875,0.7292147208557156,0.6840630512727,0.017417344882964945,-0.0005123998368525007
2020-08-03 13:56:01.805,0.0272674560546875,-0.9997406005859375,-0.07080078125,-0.0012998889433220029,-0.00239205127581954,0.01221858337521553,0.7292709559449508,0.6840035691935462,0.017396466689678,-0.0005549240218435721
2020-08-03 13:56:01.815,0.0280609130859375,-0.9986419677734375,-0.0664825439453125,-0.0031401331070810556,-0.00800572894513607,0.012073440477252007,0.7293344080548388,0.683937019507769,0.017353151956665057,-0.0005927574902275662
2020-08-03 13:56:01.825,0.030059814453125,-0.998626708984375,-0.0650177001953125,-0.009386844001710415,-0.007420898415148258,0.012417521327733994,0.7293991354963479,0.6838696854158512,0.01729040017902249,-0.0006275293695042917
2020-08-03 13:56:01.835,0.031219482421875,-0.99786376953125,-0.0653533935546875,-0.007654723711311817,-0.006326072849333286,0.01456003449857235,0.7294612071644859,0.6838051182141305,0.017220474849034738,-0.000654439955365493
2020-08-03 13:56:01.845,0.0312347412109375,-0.996856689453125,-0.06719970703125,-0.007918909192085266,-0.008257397450506687,0.015177621506154537,0.7295181808364211,0.6837462974235716,0.017143453905429765,-0.0006786974581638287
2020-08-03 13:56:01.855,0.03094482421875,-0.9970550537109375,-0.0675811767578125,-0.004248540848493576,-0.006967628374695778,0.01495498139411211,0.7295629445973457,0.6837002833606762,0.017067210632008143,-0.0007037945240573485
2020-08-03 13:56:01.865,0.0285186767578125,-0.997467041015625,-0.069427490234375,-0.0009981527691707015,-0.007950601167976856,0.015983493998646736,0.7295990158815038,0.6836639130074067,0.016981942177845342,-0.0007247142519590435
2020-08-03 13:56:01.875,0.025299072265625,-0.9984283447265625,-0.0693817138671875,0.003840544493868947,-0.0019371833186596632,0.01411448698490858,0.729626209487358,0.6836366707310053,0.016911182349174745,-0.0007358546664456775
2020-08-03 13:56:01.884,0.0229339599609375,-0.9966583251953125,-0.0694122314453125,0.00458569684997201,0.002633333671838045,0.013102219440042973,0.7296530033252839,0.6836091490359781,0.01686920561306823,-0.000743419537143972
2020-08-03 13:56:01.895,0.020355224609375,-0.995330810546875,-0.0682220458984375,0.007386809680610895,0.005106877535581589,0.010555705055594444,0.729662002919844,0.6836000857640101,0.016849195115363327,-0.0007483672406306836
2020-08-03 13:56:01.905,0.018402099609375,-0.9947967529296875,-0.0680084228515625,0.009153816848993301,0.006344448775053024,0.010130131617188454,0.7296551863201836,0.6836072468367431,0.016853575021215657,-0.000751628218522581
2020-08-03 13:56:01.915,0.0187530517578125,-0.994720458984375,-0.0680694580078125,0.005765477195382118,0.01107235811650753,0.009619870223104954,0.7296430392286873,0.6836197084018185,0.016873535201911198,-0.0007578010959768677
2020-08-03 13:56:01.925,0.02008056640625,-0.9957275390625,-0.0671539306640625,0.0051657333970069885,0.013033243827521801,0.007574030198156834,0.7296481133614137,0.6836134653891303,0.01690254888921309,-0.0007634889194300994
2020-08-03 13:56:01.935,0.0208740234375,-0.9958038330078125,-0.0662841796875,0.0038575888611376286,0.011683554388582706,0.00800546258687973,0.729656168633477,0.6836039803165392,0.016938591755203326,-0.0007641754724139974
2020-08-03 13:56:01.945,0.0222015380859375,-0.9964599609375,-0.0672149658203125,0.0033515882678329945,0.010512562468647957,0.00694818701595068,0.7296748182845906,0.683583421257964,0.01696844923592758,-0.0007635050121842357
2020-08-03 13:56:01.955,0.023651123046875,-0.9966583251953125,-0.0670928955078125,0.0011163970921188593,0.008458998054265976,0.007888549007475376,0.7296984457824616,0.6835579903783144,0.01697669703341976,-0.0007603477931404975
2020-08-03 13:56:01.965,0.0245819091796875,-0.99859619140625,-0.065093994140625,-0.0013845774810761213,0.006897853687405586,0.006293049547821283,0.7297342139381032,0.6835198036503395,0.01697478682827242,-0.0007555322060522583
2020-08-03 13:56:01.975,0.0244140625,-0.9998321533203125,-0.0641632080078125,0.0013350426452234387,0.0064773401245474815,0.007835818454623222,0.7297696863457197,0.6834823156353749,0.016959103116823977,-0.0007458508103702997
2020-08-03 13:56:01.985,0.024932861328125,-1.0003662109375,-0.06591796875,0.002912965603172779,0.009023322723805904,0.006083458662033081,0.7297952639562855,0.6834555076512264,0.016942565382832772,-0.0007210093499000619
2020-08-03 13:56:01.995,0.025238037109375,-0.99981689453125,-0.06597900390625,0.003946272190660238,0.01050084363669157,0.00606428412720561,0.7298140126110108,0.683435627850098,0.0169349974817327,-0.0006933191128873119
2020-08-03 13:56:02.004,0.0246734619140625,-0.9980316162109375,-0.066741943359375,0.005660282447934151,0.008142614737153053,0.00954130757600069,0.7298265350061006,0.6834225529437992,0.01692156282624493,-0.0006633411466360154
2020-08-03 13:56:02.015,0.0244293212890625,-0.99774169921875,-0.0687255859375,0.005898369010537863,0.010356767103075981,0.009241967462003231,0.7298346993791492,0.6834141661851836,0.01690990645733306,-0.0006328044535975335
2020-08-03 13:56:02.025,0.024139404296875,-0.996856689453125,-0.068695068359375,0.007959921844303608,0.010834538377821445,0.011261975392699242,0.7298328716196251,0.6834165925671101,0.016896216634897557,-0.000604147639455677
2020-08-03 13:56:02.035,0.02264404296875,-0.9954833984375,-0.0697479248046875,0.007644071243703365,0.013574131764471531,0.011944809928536415,0.7298327852191789,0.6834167882111443,0.016889728101778356,-0.0005664479666448972
2020-08-03 13:56:02.045,0.022674560546875,-0.994537353515625,-0.0693359375,0.007120760157704353,0.01834811456501484,0.011719772592186928,0.7298305321237794,0.6834189489844243,0.016903648918021694,-0.0005219234617911128
2020-08-03 13:56:02.055,0.0230712890625,-0.995086669921875,-0.0688629150390625,0.006691192276775837,0.021980132907629013,0.011809787712991238,0.7298246014364577,0.683424656288413,0.01693529855033582,-0.00045869717555343907
2020-08-03 13:56:02.064,0.0220794677734375,-0.9964752197265625,-0.0685272216796875,0.005221659783273935,0.02245444245636463,0.012567190453410149,0.7298205129741336,0.683428059482004,0.016970257272091067,-0.0003899307211990277
2020-08-03 13:56:02.074,0.0216827392578125,-0.9987945556640625,-0.067718505859375,0.006159625016152859,0.02094496227800846,0.010175406001508236,0.7298161885718996,0.6834318302165823,0.01700437648624494,-0.00032643683461707103
2020-08-03 13:56:02.085,0.0226898193359375,-0.9996337890625,-0.066864013671875,0.003736414946615696,0.02094549499452114,0.00941880140453577,0.729819921179904,0.6834267013568903,0.017050135667210763,-0.0002688377978534995
2020-08-03 13:56:02.095,0.0235443115234375,-0.9998931884765625,-0.0654449462890625,0.004172108136117458,0.022956447675824165,0.008364190347492695,0.7298309014391159,0.6834141084090767,0.017091937017182215,-0.0002142092745699431
2020-08-03 13:56:02.105,0.0247039794921875,-0.9992523193359375,-0.0655517578125,0.003222158644348383,0.02333994396030903,0.009375658817589283,0.7298490879583954,0.6833932737212546,0.0171451951481846,-0.00015397647037202096
2020-08-03 13:56:02.115,0.0267333984375,-1.0001373291015625,-0.0662078857421875,0.0016642092959955335,0.019767045974731445,0.01121909823268652,0.7298748916231647,0.6833647960332778,0.0171843812700967,-8.759806671227062e-05
2020-08-03 13:56:02.125,0.028045654296875,-1.0012359619140625,-0.06719970703125,-0.0006748450105078518,0.02105628326535225,0.011521367356181145,0.7299059787497424,0.6833310017065786,0.017209357928927915,-1.937568714949732e-05
2020-08-03 13:56:02.135,0.0297088623046875,-1.001922607421875,-0.068328857421875,0.0013819142477586865,0.0161235760897398,0.011658786796033382,0.7299363341120575,0.6832979942575074,0.017228258172301537,4.51833098218217e-05
2020-08-03 13:56:02.145,0.0292510986328125,-1.0003814697265625,-0.0705413818359375,0.002650377806276083,0.012688631191849709,0.013859889470040798,0.7299573123992669,0.6832755084991943,0.017229382948650368,9.613046827031124e-05
2020-08-03 13:56:02.155,0.0285186767578125,-0.99847412109375,-0.0713348388671875,0.00842517614364624,0.010212157852947712,0.013191701844334602,0.7299664975402785,0.6832662008200493,0.0172149401985468,0.00014628022795107505
2020-08-03 13:56:02.165,0.028350830078125,-0.9965057373046875,-0.0711669921875,0.009844907559454441,0.006228601094335318,0.010714695788919926,0.7299591206260028,0.683274534315805,0.01719569344423485,0.0001754072278626964
2020-08-03 13:56:02.175,0.0285491943359375,-0.996490478515625,-0.0709686279296875,0.012407400645315647,0.0037846181076020002,0.011521900072693825,0.7299417519066025,0.683293646382871,0.017172287403792376,0.00018238364199187757
2020-08-03 13:56:02.185,0.0286102294921875,-0.994964599609375,-0.0709228515625,0.013040700927376747,0.004716458264738321,0.01127928588539362,0.7299137358658279,0.683324000038097,0.01715601966907282,0.00018743706729971825
2020-08-03 13:56:02.195,0.0274658203125,-0.993316650390625,-0.070159912109375,0.012777580879628658,0.009649431332945824,0.008984706364572048,0.7298891689764184,0.6833503903285221,0.017147290468311878,0.00019318309020497672
2020-08-03 13:56:02.205,0.02667236328125,-0.99359130859375,-0.0697021484375,0.012092082761228085,0.010205766186118126,0.010182064026594162,0.7298696141022384,0.6833709504104523,0.01715783191881997,0.00019851500356718801
2020-08-03 13:56:02.215,0.0264129638671875,-0.994873046875,-0.069549560546875,0.00942226406186819,0.010750115849077702,0.008206264115869999,0.7298600124468587,0.6833808313508667,0.01717927334450608,0.0001938483567403542
2020-08-03 13:56:02.225,0.0249481201171875,-0.99432373046875,-0.067352294921875,0.009865413419902325,0.009926133789122105,0.009088569320738316,0.7298575536000975,0.6833829630014359,0.017195666651053695,0.00018499077568966647
2020-08-03 13:56:02.235,0.0245208740234375,-0.99566650390625,-0.0655059814453125,0.009941314347088337,0.008173241280019283,0.010130930691957474,0.7298638290725945,0.683376098303574,0.017206610623974848,0.00018358564981374795
2020-08-03 13:56:02.245,0.024566650390625,-0.9980621337890625,-0.066009521484375,0.013047625310719013,0.008344216272234917,0.008918926119804382,0.7298627033320364,0.6833769310552128,0.01721688245673208,0.0001830061067121993
2020-08-03 13:56:02.255,0.0250396728515625,-0.9990234375,-0.06719970703125,0.01329769566655159,0.005254683084785938,0.012053200975060463,0.7298532680832066,0.6833870170005,0.017215858444000167,0.00017939388731107522
2020-08-03 13:56:02.265,0.0259857177734375,-0.999481201171875,-0.0684814453125,0.014971226453781128,0.0015869776252657175,0.0133261913433671,0.7298428034953447,0.6833985659132522,0.017201965921420904,0.00017207845612979798
2020-08-03 13:56:02.275,0.027862548828125,-0.99908447265625,-0.0690155029296875,0.018313227221369743,-0.0004141215467825532,0.013333382084965706,0.7298268002492575,0.6834163782916239,0.01717250545798113,0.0001542206121937454
2020-08-03 13:56:02.285,0.0284881591796875,-0.9979095458984375,-0.0682525634765625,0.018424546346068382,-0.0019829897210001945,0.012765063904225826,0.7297991648608865,0.6834470785016984,0.017126815558633657,0.0001320177493342404
2020-08-03 13:56:02.295,0.028076171875,-0.9971466064453125,-0.0698089599609375,0.02069462649524212,-0.0032655680552124977,0.01455896906554699,0.7297638083298551,0.6834859172941454,0.017083487586212455,0.00011249854390042204
2020-08-03 13:56:02.305,0.027252197265625,-0.9964599609375,-0.0694427490234375,0.02137000299990177,-0.0036557212006300688,0.0126393623650074,0.7297268436380336,0.6835268135125344,0.01702742943146151,9.287098317034732e-05
2020-08-03 13:56:02.315,0.0265350341796875,-0.99560546875,-0.06866455078125,0.017730792984366417,-0.001520398654974997,0.0073687005788087845,0.7296857976131379,0.6835717345237885,0.016978860467209547,6.549370904813077e-05
2020-08-03 13:56:02.325,0.02459716796875,-0.9940338134765625,-0.0684051513671875,0.01721547171473503,0.00019574233738239855,0.005976133514195681,0.7296486361129458,0.6836122121530481,0.01694821866398344,3.221062557058445e-05
2020-08-03 13:56:02.334,0.0222625732421875,-0.9947967529296875,-0.069061279296875,0.016698285937309265,-0.0001382180635118857,0.003385676769539714,0.7296107585451469,0.6836531304004457,0.01693077608158418,-6.068470549363061e-06
2020-08-03 13:56:02.345,0.021453857421875,-0.995086669921875,-0.0680084228515625,0.012506737373769283,-8.122641156660393e-05,0.003997937310487032,0.7295879525735766,0.6836777717142557,0.016918711473473548,-4.8608102776046686e-05
2020-08-03 13:56:02.354,0.0215606689453125,-0.9960479736328125,-0.0662994384765625,0.012998622842133045,-0.0009989517275243998,0.0021848573815077543,0.7295791601474236,0.6836871665962071,0.016915629338042432,-0.00010173460728606955
2020-08-03 13:56:02.365,0.0228424072265625,-0.9975738525390625,-0.0652008056640625,0.010689928196370602,8.468852320220321e-05,0.003899400355294347,0.7295746417806341,0.6836919303701279,0.016916047759061102,-0.0001533522165782751
2020-08-03 13:56:02.375,0.0219268798828125,-0.9986724853515625,-0.0648651123046875,0.008353803306818008,0.0005203816690482199,0.004609931726008654,0.7295772607387696,0.683689124703681,0.016916391924066507,-0.00019857374650246971
2020-08-03 13:56:02.385,0.02215576171875,-1.00048828125,-0.06378173828125,0.006935670506209135,0.003102316288277507,0.00567093538120389,0.7295866311406564,0.6836793090912258,0.016914707853131213,-0.00023500262608285027
2020-08-03 13:56:02.395,0.0243072509765625,-1.0006103515625,-0.0643310546875,0.009544236585497856,0.004081827122718096,0.007998005487024784,0.7295904361764102,0.6836751983064184,0.016909458567542047,-0.0002594635360110547
2020-08-03 13:56:02.405,0.0254669189453125,-1.0003509521484375,-0.06488037109375,0.007873369380831718,0.0012141350889578462,0.00803342554718256,0.7295923585123361,0.6836734985966947,0.01689687972245575,-0.00027590688754828077
2020-08-03 13:56:02.415,0.0260467529296875,-1.0005645751953125,-0.0652313232421875,0.008794822730123997,0.0031473238486796618,0.006586263421922922,0.7295968494019672,0.6836692314791536,0.01687453857190046,-0.0002877459424543965
2020-08-03 13:56:02.425,0.0255126953125,-0.9990692138671875,-0.0657958984375,0.011347463354468346,0.004610464442521334,0.009093896485865116,0.7295926772016185,0.6836742957819542,0.016849442386280875,-0.0002877811149056102
2020-08-03 13:56:02.435,0.0252838134765625,-0.9975128173828125,-0.0676422119140625,0.010569553822278976,0.002364886924624443,0.008175904862582684,0.7295863034788983,0.6836818261044101,0.016822473354533858,-0.00028815609592131725
2020-08-03 13:56:02.445,0.0259246826171875,-0.9972381591796875,-0.0682220458984375,0.006963899824768305,0.006455768831074238,0.005218197591602802,0.7295778370573398,0.6836914334670143,0.016801351820372932,-0.000298109895929103
2020-08-03 13:56:02.455,0.0227508544921875,-0.9976043701171875,-0.068450927734375,0.005943376570940018,0.007544469088315964,0.008775915019214153,0.7295716157886036,0.6836981673096886,0.01679645659730881,-0.00029624588906776265
2020-08-03 13:56:02.465,0.0216217041015625,-0.9977569580078125,-0.0679779052734375,0.0076121133752167225,0.006217948626726866,0.006109291687607765,0.7295675115538576,0.6837026101659791,0.016788695521176226,-0.0002818083667534572
2020-08-03 13:56:02.475,0.0222930908203125,-0.9986724853515625,-0.0674896240234375,0.007267500273883343,0.010244115255773067,0.008562329225242138,0.7295584583639086,0.6837120989113463,0.016797887379945968,-0.00028243192138482226
2020-08-03 13:56:02.485,0.0223846435546875,-0.999298095703125,-0.0672607421875,0.009035040624439716,0.009757023304700851,0.007986553944647312,0.729547023945517,0.6837241490746416,0.016807228626416974,-0.00027825986955000784
2020-08-03 13:56:02.495,0.02294921875,-0.99957275390625,-0.06622314453125,0.006171875633299351,0.009601760655641556,0.009363141842186451,0.7295393717388058,0.6837321874711724,0.01681303550581319,-0.0002662466260650344
2020-08-03 13:56:02.505,0.02337646484375,-1.000213623046875,-0.0656585693359375,0.00959909800440073,0.007154049351811409,0.010264622047543526,0.7295301834984255,0.6837419479196793,0.016809281488762116,-0.00025540453245889716
2020-08-03 13:56:02.515,0.0226287841796875,-0.9990997314453125,-0.0649261474609375,0.007907191291451454,0.007752994541078806,0.008827580139040947,0.7295226300245642,0.6837502742703435,0.01680582352597846,-0.00024165215760012931
2020-08-03 13:56:02.525,0.0229339599609375,-0.9982757568359375,-0.0643463134765625,0.00737189594656229,0.010900584980845451,0.008297611027956009,0.7295264493393238,0.6837459459642108,0.01681398085937082,-0.00023190025372734485
2020-08-03 13:56:02.535,0.0224609375,-0.9969024658203125,-0.0627899169921875,0.004593153949826956,0.011993279680609703,0.006872287020087242,0.729537096189847,0.683734252275789,0.01682498251359674,-0.0002198158361270703
2020-08-03 13:56:02.545,0.0225982666015625,-0.9975128173828125,-0.06231689453125,0.0028298748657107353,0.012079033069312572,0.005886651109904051,0.7295548179896248,0.6837150326340374,0.016837278631805702,-0.0002011004328958451
2020-08-03 13:56:02.555,0.021575927734375,-0.997589111328125,-0.0622100830078125,0.004885302856564522,0.011322695761919022,0.004857073072344065,0.7295713436548256,0.6836970913732807,0.016852377449527917,-0.00018204891697367644
2020-08-03 13:56:02.565,0.021697998046875,-0.9976806640625,-0.0636444091796875,0.006105030421167612,0.013730992563068867,0.005282912403345108,0.7295842496209044,0.6836828402165833,0.016873015847708818,-0.00016945356852984123
2020-08-03 13:56:02.575,0.0222015380859375,-0.9973602294921875,-0.0648345947265625,0.00689039658755064,0.015209046192467213,0.0062941149808466434,0.7295905658727229,0.6836753584159374,0.016900926151906012,-0.0001490171844414894
2020-08-03 13:56:02.585,0.0228729248046875,-0.99713134765625,-0.06427001953125,0.007694138679653406,0.013399695046246052,0.007253651972860098,0.7295846423390288,0.6836810679846266,0.01692732278746699,-0.00013194477462174538
2020-08-03 13:56:02.595,0.0238494873046875,-0.997711181640625,-0.0647735595703125,0.007655256427824497,0.012371981516480446,0.006639793049544096,0.7295793195220424,0.6836862796659859,0.016945382300147825,-0.00011020462771368748
2020-08-03 13:56:02.605,0.025543212890625,-0.99774169921875,-0.064453125,0.00788269005715847,0.00999271310865879,0.008977781981229782,0.7295763859906389,0.6836891048310622,0.016958564901079075,-8.888340401052956e-05
2020-08-03 13:56:02.615,0.0262298583984375,-0.9986419677734375,-0.0648193359375,0.007186007685959339,0.012708870694041252,0.00869282428175211,0.7295674736181708,0.6836984810445621,0.016967189150805723,-6.603713705859507e-05
2020-08-03 13:56:02.625,0.0255584716796875,-0.9992218017578125,-0.065673828125,0.010845723561942577,0.009913883171975613,0.00971254799515009,0.7295496350835672,0.6837173631910544,0.016973424593443066,-3.941678107116653e-05
2020-08-03 13:56:02.635,0.0257568359375,-0.9983367919921875,-0.065887451171875,0.008215852081775665,0.01022866927087307,0.008772718720138073,0.7295309821543491,0.6837373496708602,0.016966874852404785,-1.9566025877460272e-05
2020-08-03 13:56:02.645,0.024139404296875,-0.9982452392578125,-0.067047119140625,0.010123740881681442,0.008301072753965855,0.00845447089523077,0.7295101368019573,0.6837598004591554,0.01695859754145663,4.233134536440336e-06
2020-08-03 13:56:02.655,0.023529052734375,-1.0000152587890625,-0.0671844482421875,0.01158714760094881,0.005160140804946423,0.007768440991640091,0.7294927061405743,0.683778376748476,0.016955374870257882,1.646836264502724e-05
2020-08-03 13:56:02.664,0.023895263671875,-0.999664306640625,-0.0661773681640625,0.012619921006262302,0.004715392831712961,0.007475759368389845,0.7294730351797507,0.6837997984719872,0.0169433710663544,1.1413009991693285e-05
2020-08-03 13:56:02.675,0.0226898193359375,-0.9988861083984375,-0.0654754638671875,0.010209227912127972,0.007225954905152321,0.0068027786910533905,0.7294499807887884,0.6838242772141215,0.016945108632614315,5.146119941365143e-06
2020-08-03 13:56:02.685,0.0236968994140625,-0.99884033203125,-0.06536865234375,0.010118946433067322,0.007494934368878603,0.008833705447614193,0.7294319314207118,0.6838435212247367,0.016945925801522314,4.119489464162254e-06
2020-08-03 13:56:02.695,0.0236968994140625,-0.9993438720703125,-0.0637664794921875,0.008082959800958633,0.008280566893517971,0.008026767522096634,0.7294242790705907,0.6838516968384813,0.01694514380149322,6.023454693455596e-06
2020-08-03 13:56:02.705,0.0239715576171875,-0.99981689453125,-0.0616607666015625,0.008142348378896713,0.009586581028997898,0.007653392385691404,0.7294186346609763,0.6838573976691421,0.01695710010724687,1.4580684928346827e-05
2020-08-03 13:56:02.715,0.025177001953125,-0.9986114501953125,-0.0619964599609375,0.006952181924134493,0.00884835235774517,0.0080296965315938,0.7294174877341834,0.6838584136647615,0.016966996886524175,2.0860558907230542e-05
2020-08-03 13:56:02.725,0.0249176025390625,-0.998992919921875,-0.0615081787109375,0.005146558862179518,0.009661681950092316,0.007997739128768444,0.729423500804444,0.683851822327171,0.016974975748296886,2.1490217418948174e-05
2020-08-03 13:56:02.734,0.0251312255859375,-0.998291015625,-0.06097412109375,0.002662628423422575,0.010456102900207043,0.005792641546577215,0.7294356021990609,0.6838386577230247,0.01698433853196951,3.154271583565883e-05
2020-08-03 13:56:02.745,0.0256500244140625,-0.9981689453125,-0.0626983642578125,0.003096457337960601,0.009335445240139961,0.004303401801735163,0.7294491659527859,0.6838238954942518,0.016997759179467935,3.383908150828875e-05
2020-08-03 13:56:02.755,0.0257415771484375,-0.9970703125,-0.0640411376953125,0.005119128152728081,0.008197209797799587,0.003969707991927862,0.7294555355013904,0.6838165872072699,0.017015999071660917,2.9507713847114897e-05
2020-08-03 13:56:02.765,0.027496337890625,-0.9963226318359375,-0.0649261474609375,0.0054632085375487804,0.006147374864667654,0.003829092951491475,0.7294562315657995,0.6838157562393098,0.017020757986389932,2.1019798695915554e-05
2020-08-03 13:56:02.774,0.0284576416015625,-0.995330810546875,-0.065277099609375,0.008567389100790024,0.003747866488993168,0.005913282744586468,0.7294522553107434,0.6838198450861045,0.017027869788188564,9.409791708160989e-06
2020-08-03 13:56:02.785,0.0277557373046875,-0.9959716796875,-0.06622314453125,0.006877347361296415,0.004863198380917311,0.006171609275043011,0.7294458949803787,0.6838266876653679,0.017023864389364984,-2.223639723313367e-06
2020-08-03 13:56:02.795,0.0292510986328125,-0.995849609375,-0.0667572021484375,0.004119910299777985,0.005606486462056637,0.006228867452591658,0.7294385004846227,0.683834608472515,0.017019411585415534,-1.7150529339364506e-05
2020-08-03 13:56:02.805,0.029266357421875,-0.995849609375,-0.06787109375,0.005389705300331116,0.003344397759065032,0.007508782669901848,0.7294385037466838,0.6838348492160392,0.017014154877720386,-3.26096554739419e-05
2020-08-03 13:56:02.815,0.0283660888671875,-0.9969482421875,-0.067901611328125,0.006929545197635889,0.004772118292748928,0.008624646812677383,0.7294291865851137,0.6838450865555777,0.01700027764229939,-4.118664052415663e-05
2020-08-03 13:56:02.825,0.0270538330078125,-0.9967803955078125,-0.066802978515625,0.0028213527984917164,0.004503138829022646,0.006087453570216894,0.7294228767560628,0.6838518697866183,0.016996250122553846,-5.71075837229925e-05
2020-08-03 13:56:02.835,0.026123046875,-0.9974822998046875,-0.0657196044921875,0.0005933523061685264,0.005269863177090883,0.004333761986345053,0.7294353794028879,0.6838384052983324,0.017000708414796402,-7.606027580979273e-05
2020-08-03 13:56:02.845,0.0251922607421875,-0.9972076416015625,-0.0670318603515625,-0.0018764632986858487,0.00558251840993762,0.0012932310346513987,0.7294570761753751,0.683814845037339,0.017017146511557567,-0.0001012939890749874
2020-08-03 13:56:02.855,0.02386474609375,-0.996917724609375,-0.0672149658203125,-0.0017379788914695382,0.006819556467235088,-0.00166580721270293,0.7294879024863817,0.6837813013490316,0.017046147853208814,-0.00014756824562580165
2020-08-03 13:56:02.865,0.0237579345703125,-0.9970550537109375,-0.0664520263671875,-0.003120958572253585,0.00555269094184041,-0.002529470482841134,0.7295222031386723,0.6837440713578323,0.017074347625877707,-0.00020034923088184213
2020-08-03 13:56:02.875,0.024444580078125,-0.99725341796875,-0.0691986083984375,-0.001692705205641687,0.0006407565670087934,2.1305288100847974e-05,0.7295595594756773,0.683703628275071,0.017096995740369686,-0.0002544577750237722
2020-08-03 13:56:02.884,0.0255126953125,-0.997894287109375,-0.0702972412109375,-0.004113784991204739,-0.0019150790758430958,-4.76705827168189e-05,0.7295950196961355,0.6836654850897974,0.017106570983957563,-0.00031965260142800475
2020-08-03 13:56:02.895,0.0262908935546875,-0.9993133544921875,-0.0682220458984375,-0.008623315952718258,-0.0010319749126210809,-0.0012628709664568305,0.7296471753154115,0.6836095974497151,0.017114536414645703,-0.0003903275826604574
2020-08-03 13:56:02.905,0.0274658203125,-1.0001068115234375,-0.0649261474609375,-0.014487596228718758,-6.072007090551779e-05,0.00065460498444736,0.7297127519099101,0.6835391767023106,0.017126591760541834,-0.0004516451709909424
2020-08-03 13:56:02.915,0.0285186767578125,-1.002227783203125,-0.0662689208984375,-0.019335348159074783,-0.002682868391275406,0.0006016080733388662,0.7297918461385229,0.6834549422034609,0.017117089503335264,-0.0005118116119602924
2020-08-03 13:56:02.925,0.0293121337890625,-1.00360107421875,-0.0665740966796875,-0.024540230631828308,-0.003498861100524664,0.0006303702248260379,0.7298907723808211,0.6833496941116882,0.01710012334542666,-0.0005755352034998093
2020-08-03 13:56:02.935,0.0304718017578125,-1.002288818359375,-0.066314697265625,-0.029136046767234802,-0.005703159607946873,0.0024112260434776545,0.7300098332969236,0.683223003497545,0.01707668388738988,-0.0006280256776862846
2020-08-03 13:56:02.945,0.0294647216796875,-1.00274658203125,-0.0683746337890625,-0.030672159045934677,-0.004935636185109615,0.002186721656471491,0.7301350364112585,0.6830899115787987,0.01705015040443719,-0.0006807278778781772
2020-08-03 13:56:02.955,0.0277557373046875,-1.003173828125,-0.0716094970703125,-0.02882871776819229,0.0004751079250127077,0.002282329136505723,0.7302594462091511,0.6829573341325201,0.017030545982215574,-0.000726807014104807
2020-08-03 13:56:02.965,0.0268402099609375,-1.00225830078125,-0.0718536376953125,-0.029576534405350685,0.00024580975878052413,0.0032554480712860823,0.730389363364797,0.6828185634931672,0.017015482704300405,-0.0007647470852694977
2020-08-03 13:56:02.975,0.026214599609375,-1.0014190673828125,-0.0689544677734375,-0.034144386649131775,-0.0029648973140865564,0.008020642213523388,0.7305250160073539,0.6826740804508489,0.01698944559772432,-0.0007987338525875382
2020-08-03 13:56:02.985,0.0251312255859375,-1.0010223388671875,-0.0680694580078125,-0.039201732724905014,-0.005766009911894798,0.005405151750892401,0.7306691226419523,0.6825207478043015,0.016955622172862096,-0.0008419544739222736
2020-08-03 13:56:02.994,0.0231781005859375,-1.0006256103515625,-0.0674591064453125,-0.03877349570393562,-0.0015598133904859424,0.008058193139731884,0.7308174637867505,0.6823626292154729,0.01692326239971207,-0.0008853692416674244
2020-08-03 13:56:03.005,0.0240478515625,-0.9991607666015625,-0.068603515625,-0.032771795988082886,0.004168912302702665,0.007817443460226059,0.7309522268699782,0.6822185725206106,0.01691163608053886,-0.0009146834719685158
2020-08-03 13:56:03.015,0.0258941650390625,-0.997314453125,-0.071319580078125,-0.028304075822234154,0.008711998350918293,0.008204933255910873,0.7310685779818193,0.6820936976209553,0.016916230409999896,-0.0009243611219706682
2020-08-03 13:56:03.025,0.0263671875,-0.9971771240234375,-0.069305419921875,-0.023541811853647232,0.005844307132065296,0.0076027922332286835,0.7311704205457612,0.6819841234901655,0.01693253274182,-0.000932033943252808
2020-08-03 13:56:03.035,0.0264892578125,-0.9971771240234375,-0.069091796875,-0.018446652218699455,0.007480819243937731,0.010041182860732079,0.7312618401069721,0.6818861066246201,0.01692917270571142,-0.0009303098256466542
2020-08-03 13:56:03.045,0.0243072509765625,-0.99615478515625,-0.06842041015625,-0.010884072631597519,0.011718441732227802,0.008993761613965034,0.7313348874096819,0.6818076318608048,0.016936747283015145,-0.0009173814395974367
2020-08-03 13:56:03.055,0.0247802734375,-0.9971160888671875,-0.0660400390625,-0.009006277658045292,0.007587079424411058,0.01064811646938324,0.7313874009844447,0.6817511641915575,0.016938288623431975,-0.0009020497745877501
2020-08-03 13:56:03.065,0.022674560546875,-0.9960479736328125,-0.0673065185546875,-0.008627576753497124,0.009060340002179146,0.011425759643316269,0.7314328366651751,0.6817027393655625,0.016930077141370313,-0.000888038360212378
2020-08-03 13:56:03.075,0.0212860107421875,-0.9948577880859375,-0.0662689208984375,-0.009722402319312096,0.010157829150557518,0.0092334458604455,0.7314712385371323,0.6816618489280636,0.016919855057857428,-0.0008689685376997262
2020-08-03 13:56:03.085,0.0218505859375,-0.9962158203125,-0.0676116943359375,-0.014319551177322865,0.013353356160223484,0.00782756321132183,0.7315236458171283,0.6816053675534434,0.016927620697317975,-0.0008395518248533514
2020-08-03 13:56:03.095,0.021820068359375,-0.9976043701171875,-0.069488525390625,-0.016531305387616158,0.012832974083721638,0.005846970248967409,0.7315933392359388,0.6815299986042875,0.016949854635834274,-0.0008151612427310037
2020-08-03 13:56:03.105,0.022125244140625,-0.99920654296875,-0.06951904296875,-0.014730743132531643,0.013942980207502842,0.004917527083307505,0.7316707394052646,0.6814460890350527,0.016983616346050917,-0.0008023538920314838
2020-08-03 13:56:03.115,0.0232696533203125,-0.999847412109375,-0.0700836181640625,-0.00743075180798769,0.013598899357020855,0.0057620154693722725,0.731724537300362,0.6813874040235033,0.0170215860635594,-0.0007897844957492663
2020-08-03 13:56:03.125,0.0239105224609375,-0.99774169921875,-0.070587158203125,-0.002281263703480363,0.014116085134446621,0.007704524789005518,0.7317590307402735,0.6813495879161509,0.017053999978779613,-0.0007678398789852763
2020-08-03 13:56:03.135,0.0240020751953125,-0.994293212890625,-0.070526123046875,0.0030330740846693516,0.01522742211818695,0.010099506005644798,0.7317628415556763,0.6813450814235574,0.017072224440103232,-0.000737123480974879
2020-08-03 13:56:03.145,0.024017333984375,-0.9931793212890625,-0.07000732421875,0.003979561384767294,0.015517174266278744,0.00868909526616335,0.7317562716378332,0.6813515984755588,0.01709585598417751,-0.0006955380542768477
2020-08-03 13:56:03.155,0.0230255126953125,-0.99200439453125,-0.0700225830078125,0.005283178761601448,0.020134562626481056,0.010569553822278976,0.7317490777666507,0.6813590225166365,0.017113335222308013,-0.0006414654178701542
2020-08-03 13:56:03.165,0.0241546630859375,-0.992156982421875,-0.0688018798828125,0.006015548016875982,0.021157482638955116,0.009982859715819359,0.7317354201172027,0.6813729616505363,0.017139430157440114,-0.0005801221341804504
2020-08-03 13:56:03.175,0.0232391357421875,-0.9936981201171875,-0.0692291259765625,0.006586529780179262,0.02202780358493328,0.011593539267778397,0.7317259321789438,0.6813824258986392,0.017176005441860313,-0.0005084108980068051
2020-08-03 13:56:03.185,0.0234527587890625,-0.993408203125,-0.069427490234375,0.007179882377386093,0.023069100454449654,0.011535748839378357,0.731716265006279,0.6813920950705606,0.017205304349119988,-0.0004316042909571164
2020-08-03 13:56:03.195,0.0243988037109375,-0.9945831298828125,-0.06951904296875,0.008304002694785595,0.019597403705120087,0.010627610608935356,0.73170705458555,0.6814011116702006,0.017239398733703254,-0.0003632111127116096
2020-08-03 13:56:03.205,0.0238037109375,-0.996917724609375,-0.0689849853515625,0.0073236930184066296,0.022962041199207306,0.009212672710418701,0.7316996284228777,0.6814080772658492,0.01728061735681423,-0.00029953861034673866
2020-08-03 13:56:03.215,0.0244140625,-0.997894287109375,-0.0693359375,0.003439738880842924,0.0226144976913929,0.010869958437979221,0.7316974746593702,0.6814091747703189,0.017329140653811716,-0.00023814365054145893
2020-08-03 13:56:03.225,0.0244140625,-0.997894287109375,-0.0693359375,0.004622715059667826,0.021819278597831726,0.010264888405799866,0.7317036133473211,0.681401563453508,0.01737310747866153,-0.0001722679083728234
2020-08-03 13:56:03.235,0.0253753662109375,-1.000823974609375,-0.0695648193359375,0.0006340986583381891,0.017600033432245255,0.011566907167434692,0.7317152688804031,0.6813880657534823,0.017410749773243542,-0.00010918002393772025
2020-08-03 13:56:03.245,0.0262451171875,-1.0011138916015625,-0.06866455078125,-0.0004980111261829734,0.01973775215446949,0.011332282796502113,0.7317333598646943,0.6813678301295014,0.017443512334280736,-4.5897120729339325e-05
2020-08-03 13:56:03.255,0.027618408203125,-1.0022430419921875,-0.0687408447265625,0.0013137373607605696,0.01979714073240757,0.012606339529156685,0.7317499041812718,0.6813491026559477,0.01747981330290288,2.2178179586876054e-05
2020-08-03 13:56:03.265,0.027191162109375,-1.00177001953125,-0.068206787109375,0.004518851637840271,0.01444152370095253,0.012970127165317535,0.731752517197241,0.68134585104284,0.017497774991490612,8.3736395180228e-05
2020-08-03 13:56:03.275,0.0278778076171875,-0.9994964599609375,-0.0689544677734375,0.005424859002232552,0.0137240681797266,0.011534417048096657,0.731754739306608,0.6813432113230456,0.017509334080882656,0.00012787492874541742
2020-08-03 13:56:03.285,0.028839111328125,-0.9988555908203125,-0.070831298828125,0.00336170825175941,0.017345700412988663,0.011197260580956936,0.7317581807171001,0.681339056949011,0.01752802838322516,0.0001697105328188099
2020-08-03 13:56:03.295,0.0284271240234375,-0.9990692138671875,-0.0724639892578125,0.0022184131667017937,0.013615144416689873,0.011697402223944664,0.7317626387316024,0.6813336251373141,0.017543839897833917,0.0002163305390902922
2020-08-03 13:56:03.305,0.029052734375,-0.9994049072265625,-0.072265625,0.0014093448407948017,0.01116397138684988,0.012819658033549786,0.7317718689763698,0.6813237514161223,0.01754202847331765,0.00025252958144993294
2020-08-03 13:56:03.315,0.02880859375,-0.997802734375,-0.0735931396484375,-0.0010852381819859147,0.012967197224497795,0.012279569171369076,0.731788436182823,0.6813059910452766,0.017541769915483823,0.0002882971924104919
2020-08-03 13:56:03.324,0.02880859375,-0.997802734375,-0.0735931396484375,-0.0010852381819859147,0.012967197224497795,0.012279569171369076,0.731799763714935,0.6812936642098748,0.017545796404465998,0.00030838186095673466
2020-08-03 13:56:03.335,0.02642822265625,-0.9976806640625,-0.0729217529296875,0.0015286544803529978,0.007181213703006506,0.012643356807529926,0.7318145157416992,0.6812779155579226,0.017546809600846827,0.0003514953641155557
2020-08-03 13:56:03.345,0.025299072265625,-0.9971923828125,-0.07305908203125,0.0023070964962244034,0.007617439609020948,0.011011372320353985,0.7318183967571248,0.6812739603802721,0.017538470873844553,0.00035600894170889456
2020-08-03 13:56:03.354,0.025299072265625,-0.9971923828125,-0.07305908203125,0.0023070964962244034,0.007617439609020948,0.011011372320353985,0.7318250878376136,0.6812669079454056,0.0175349891734622,0.000359804920173578
2020-08-03 13:56:03.365,0.025848388671875,-0.995635986328125,-0.0726776123046875,0.0022503710351884365,0.006934072356671095,0.009304818697273731,0.7318298846325793,0.6812612017255002,0.017548794042483377,0.0003422377119260394
2020-08-03 13:56:03.375,0.02532958984375,-0.9953460693359375,-0.07244873046875,0.004110322799533606,0.006579605862498283,0.005745769944041967,0.7318389631593201,0.6812513481172081,0.01756045723368093,0.0003204672916150026
2020-08-03 13:56:03.385,0.0258026123046875,-0.99615478515625,-0.0730133056640625,0.0029470541048794985,0.002088983543217182,0.006404635962098837,0.7318398429765554,0.6812502418803704,0.017568343298537306,0.0002963789427041074
2020-08-03 13:56:03.395,0.027191162109375,-0.9960479736328125,-0.0720977783203125,0.010889931581914425,0.0009528790251351893,0.006321811582893133,0.7318349783114747,0.6812555265976646,0.01756501995345915,0.000258979536782878
2020-08-03 13:56:03.405,0.028411865234375,-0.99700927734375,-0.072235107421875,0.011903264559805393,0.0008016114588826895,0.008064850233495235,0.7318278471816018,0.6812635516213623,0.017551719267532642,0.0002216931428664394
2020-08-03 13:56:03.415,0.0284576416015625,-0.997833251953125,-0.0716552734375,0.009140501730144024,0.0006506102508865297,0.008112254552543163,0.7318145268681516,0.6812783521370573,0.017529987371920724,0.00019366821074533191
2020-08-03 13:56:03.425,0.0284576416015625,-0.997833251953125,-0.0716552734375,0.008054996840655804,-0.0016290555940940976,0.008657404221594334,0.7318063704206025,0.6812880293224814,0.01749787722287395,0.00016751937580696333
2020-08-03 13:56:03.435,0.0286865234375,-0.9979400634765625,-0.0700225830078125,0.00743075180798769,-0.0016309198690578341,0.008372445590794086,0.7318005121661036,0.6812952118363904,0.017459950981235116,0.00014362455731856995
2020-08-03 13:56:03.445,0.027008056640625,-0.9980316162109375,-0.071136474609375,0.008440623059868813,0.0014913701452314854,0.00857537891715765,0.731798263151376,0.6812983647048625,0.017430129707641313,0.00012201316860486686
2020-08-03 13:56:03.455,0.0252838134765625,-0.998077392578125,-0.0713043212890625,0.010184193961322308,-0.0003382214636076242,0.0103154880926013,0.7317866649683236,0.6813118537722731,0.017393220312792945,0.00010466359025473188
2020-08-03 13:56:03.465,0.0252838134765625,-0.998077392578125,-0.0713043212890625,0.010184193961322308,-0.0003382214636076242,0.0103154880926013,0.7317743540252245,0.6813258161395753,0.017361674763287815,8.70979172108953e-05
2020-08-03 13:56:03.475,0.0246429443359375,-0.998443603515625,-0.07196044921875,0.01155705377459526,0.0017398431664332747,0.008839298039674759,0.7317609713917581,0.6813408799788996,0.017337829857529772,6.942461960600735e-05
2020-08-03 13:56:03.485,0.0246429443359375,-0.998443603515625,-0.07196044921875,0.009260343387722969,0.001558748190291226,0.006381999235600233,0.7317524067841757,0.6813504832669249,0.017322114978138778,3.744235616752814e-05
2020-08-03 13:56:03.495,0.0244140625,-0.9991455078125,-0.0721893310546875,0.009260343387722969,0.001558748190291226,0.006381999235600233,0.7317477790850134,0.6813553355446893,0.017320080236219927,1.0289137683080346e-05
2020-08-03 13:56:03.505,0.02325439453125,-0.9971771240234375,-0.070343017578125,0.008717059157788754,0.0028216191567480564,0.0065535069443285465,0.7317428475697172,0.6813608305943342,0.01731914278832313,-1.6374024144113347e-05
2020-08-03 13:56:03.515,0.0229034423828125,-0.996734619140625,-0.071136474609375,0.008853412233293056,0.004223507363349199,0.0073479278944432735,0.7317339170723919,0.681370260303693,0.017323225293175613,-4.2596241859902545e-05
2020-08-03 13:56:03.525,0.02459716796875,-0.9957275390625,-0.0712738037109375,0.008957276120781898,0.003501524217426777,0.006554571911692619,0.7317239138156229,0.6813810720950496,0.01732130638451137,-6.377459429027406e-05
2020-08-03 13:56:03.535,0.0257110595703125,-0.997039794921875,-0.0702972412109375,0.010898986831307411,0.00379021093249321,0.007081611547619104,0.7317121177669068,0.681394161396147,0.017308215302383398,-7.950775215359238e-05
2020-08-03 13:56:03.545,0.0257110595703125,-0.997039794921875,-0.0702972412109375,0.010898986831307411,0.00379021093249321,0.007081611547619104,0.7316980153363714,0.6814094811229213,0.017293010164058896,-0.00010186043471571878
2020-08-03 13:56:03.555,0.026153564453125,-0.99859619140625,-0.070526123046875,0.010883539915084839,0.002718554809689522,0.006809968966990709,0.7316871859321,0.681421536653526,0.017276592098502082,-0.00012374985273610507
2020-08-03 13:56:03.565,0.0274810791015625,-0.9990997314453125,-0.0699005126953125,0.009151953272521496,0.0012796488590538502,0.007905061356723309,0.731678666293182,0.6814311879419298,0.01725680203408981,-0.00014436773146555767
2020-08-03 13:56:03.575,0.028594970703125,-0.9990386962890625,-0.0698394775390625,0.005855225957930088,0.000702009245287627,0.008073905482888222,0.7316767841722746,0.6814338619500319,0.017232210447524387,-0.000166763683559841
2020-08-03 13:56:03.585,0.0282440185546875,-0.9993743896484375,-0.0702056884765625,0.008079231716692448,0.0008247809601016343,0.007391603663563728,0.7316687402346561,0.6814432033395891,0.017208366130064816,-0.00019234304703935612
2020-08-03 13:56:03.595,0.0276947021484375,-0.99810791015625,-0.070587158203125,0.010367685928940773,0.0014732606941834092,0.005494900047779083,0.7316480614163898,0.6814657918277409,0.01719345896459982,-0.0002181075570218509
2020-08-03 13:56:03.605,0.026123046875,-0.997314453125,-0.0715789794921875,0.011619637720286846,0.002549444092437625,0.004355067387223244,0.7316288246923954,0.681486701415994,0.017184449126679623,-0.00024484700832426605
2020-08-03 13:56:03.615,0.0254364013671875,-0.9971466064453125,-0.072265625,0.011681423522531986,0.0022455775178968906,0.005979595705866814,0.7316051008183853,0.6815122974297949,0.017177363782833584,-0.00027018634839430684
2020-08-03 13:56:03.625,0.0256500244140625,-0.996826171875,-0.07177734375,0.010660100728273392,0.0029201561119407415,0.004679706413298845,0.7315854618635085,0.6815334289505299,0.01717481572913685,-0.00029820188092056013
2020-08-03 13:56:03.635,0.0247344970703125,-0.996612548828125,-0.072845458984375,0.011634818278253078,0.002730805426836014,0.0041092573665082455,0.7315638633254063,0.6815566628819181,0.017165839788713062,-0.00033191543695879414
2020-08-03 13:56:03.645,0.024993896484375,-0.99566650390625,-0.0724639892578125,0.011542672291398048,0.0025656893849372864,0.005200088489800692,0.7315491328754922,0.6815724482201225,0.017166772692226752,-0.0003667393399969989
2020-08-03 13:56:03.654,0.02410888671875,-0.9963531494140625,-0.071807861328125,0.009522665292024612,0.0026988473255187273,0.005363606382161379,0.7315433869123609,0.681578801100827,0.017158795678760556,-0.00037992467715794453
2020-08-03 13:56:03.665,0.022735595703125,-0.9970245361328125,-0.071685791015625,0.007664843928068876,0.004234958905726671,0.004989698529243469,0.7315284985838891,0.6815948684926488,0.017161086141513446,-0.00042158775312793953
2020-08-03 13:56:03.675,0.023284912109375,-0.9964599609375,-0.0722808837890625,0.009875001385807991,0.005616073962301016,0.006589459255337715,0.7315182607043038,0.6816058346794936,0.01716124138788628,-0.00043802903970380225
2020-08-03 13:56:03.685,0.022674560546875,-0.9969482421875,-0.0710906982421875,0.009664878249168396,0.00708800321444869,0.004460528492927551,0.7315132834220445,0.6816106926846973,0.017178963298302218,-0.0004456244506127194
2020-08-03 13:56:03.695,0.021331787109375,-0.9968719482421875,-0.0702362060546875,0.007733287289738655,0.010281399823725224,0.00461712246760726,0.7315036004095321,0.681620502770397,0.017201359492619882,-0.00044338395695164845
2020-08-03 13:56:03.705,0.0221405029296875,-0.9969024658203125,-0.070648193359375,0.009156480431556702,0.01173308864235878,0.006371612660586834,0.7314959750490645,0.6816283678996656,0.017211755138644046,-0.0004387106596400875
2020-08-03 13:56:03.715,0.0235443115234375,-0.9971160888671875,-0.0718231201171875,0.011355984956026077,0.013738981448113918,0.006324741058051586,0.731474956237057,0.6816500668266455,0.0172470672059541,-0.00041536712762787684
2020-08-03 13:56:03.725,0.0250244140625,-0.99853515625,-0.0727996826171875,0.011973305605351925,0.013547234237194061,0.006449377164244652,0.7314518496689593,0.681674404019615,0.017265882882947305,-0.00038683986962833455
2020-08-03 13:56:03.735,0.025482177734375,-0.998321533203125,-0.072357177734375,0.016716929152607918,0.01278530340641737,0.009008408524096012,0.7314270160301349,0.6817007082429289,0.017279642874639643,-0.00035338635696112106
2020-08-03 13:56:03.745,0.0253448486328125,-0.9994354248046875,-0.0703887939453125,0.011304319836199284,0.01582237333059311,0.01005050353705883,0.7314158925879947,0.6817121552830354,0.017299702871718288,-0.0003148871615601453
2020-08-03 13:56:03.755,0.0263519287109375,-1.0001220703125,-0.0684967041015625,0.011261176317930222,0.014415157958865166,0.008653675206005573,0.7314020524607707,0.6817264879873809,0.017322748424144968,-0.000273476781646978
2020-08-03 13:56:03.765,0.024871826171875,-1.00030517578125,-0.06927490234375,0.01200845930725336,0.014341655187308788,0.009516539983451366,0.7313751359529603,0.6817549687456342,0.017338969630017256,-0.0002301937260172967
2020-08-03 13:56:03.775,0.024169921875,-0.9986572265625,-0.069915771484375,0.015037273056805134,0.01629534922540188,0.007962052710354328,0.7313454864381816,0.6817863130816229,0.017354990786900067,-0.0001826137740133446
2020-08-03 13:56:03.785,0.023651123046875,-0.9970855712890625,-0.0699005126953125,0.013896108604967594,0.017598701640963554,0.00893863383680582,0.7313225986384188,0.6818102027585661,0.017381435773427108,-0.00014229537153660418
2020-08-03 13:56:03.795,0.0241546630859375,-0.9964599609375,-0.0706787109375,0.01270034909248352,0.016708139330148697,0.008075503632426262,0.7313045863488403,0.6818289060064235,0.017407920260405184,-0.00010598411557279433
2020-08-03 13:56:03.805,0.025299072265625,-0.9962158203125,-0.070831298828125,0.011634019203484058,0.015206117182970047,0.008421714417636395,0.7312872686597139,0.6818467141058426,0.01743449106798767,-7.297575956679084e-05
2020-08-03 13:56:03.815,0.0257110595703125,-0.9958648681640625,-0.0721282958984375,0.014576279558241367,0.01486176997423172,0.00803262647241354,0.7312726457818434,0.6818620305991846,0.017449924804243053,-6.126442883491214e-05
2020-08-03 13:56:03.825,0.025421142578125,-0.9951629638671875,-0.072723388671875,0.012978382408618927,0.011257181875407696,0.006099704187363386,0.7312505690118528,0.6818849685107528,0.017476202107350902,-4.931584105846015e-05
2020-08-03 13:56:03.835,0.0261688232421875,-0.995635986328125,-0.072509765625,0.010872621089220047,0.013275325298309326,0.004634432960301638,0.7312263554762551,0.6819096294259495,0.017528262806107885,-2.8022666335185756e-05
2020-08-03 13:56:03.845,0.026214599609375,-0.995941162109375,-0.07220458984375,0.008215053007006645,0.015357118099927902,0.006975351367145777,0.7312205524868793,0.6819154864569064,0.017547200767252163,-1.6123623917847774e-05
2020-08-03 13:56:03.855,0.0261383056640625,-0.9971160888671875,-0.0722503662109375,0.006982009392231703,0.01757100410759449,0.0038461373187601566,0.7312102556243057,0.68192518574038,0.017594186140820662,7.867775615308034e-06
2020-08-03 13:56:03.865,0.0253448486328125,-0.9982452392578125,-0.0726470947265625,0.010484598577022552,0.017767544835805893,0.004876514431089163,0.7311787218344508,0.6819571029687439,0.0176678445592342,4.841684510973297e-05
2020-08-03 13:56:03.875,0.0253753662109375,-0.9986724853515625,-0.072662353515625,0.013648967258632183,0.02022005058825016,0.0031249532476067543,0.7311644787777856,0.6819716291409984,0.017699768510524103,6.330681728180208e-05
2020-08-03 13:56:03.884,0.0245361328125,-0.998931884765625,-0.0717926025390625,0.013763749040663242,0.01943654753267765,0.002918824553489685,0.7311348859989986,0.6820017532467539,0.017758657292270497,9.088776078657393e-05
2020-08-03 13:56:03.895,0.0258941650390625,-0.9977264404296875,-0.0711822509765625,0.014334997162222862,0.017791779711842537,0.005337241105735302,0.7311067148623572,0.682030683103809,0.017807600625777645,0.00011416940109883894
2020-08-03 13:56:03.904,0.026580810546875,-0.99755859375,-0.071197509765625,0.01528947427868843,0.015529691241681576,0.0054791877046227455,0.7310853805463361,0.6820525093437964,0.017847286124146815,0.0001339345528907649
2020-08-03 13:56:03.915,0.027740478515625,-0.9964447021484375,-0.0706787109375,0.01500957552343607,0.015149923972785473,0.006641657557338476,0.731065767493354,0.6820726581200159,0.01788262557068793,0.00015432724333973476
2020-08-03 13:56:03.925,0.028289794921875,-0.996490478515625,-0.0705108642578125,0.012708071619272232,0.012044678442180157,0.00814953912049532,0.7310544978150431,0.6820842079295725,0.01790408199641411,0.00016981665860791445
2020-08-03 13:56:03.934,0.0278778076171875,-0.996978759765625,-0.0687408447265625,0.007472829893231392,0.01398479100316763,0.006943659856915474,0.7310530222112718,0.6820850518762964,0.017928585557150267,0.0001837579778410925
2020-08-03 13:56:03.945,0.02606201171875,-0.998046875,-0.06793212890625,0.009170861914753914,0.013643640093505383,0.006674680393189192,0.7310514808812023,0.6820861394024353,0.017952652372146403,0.0002032793949231053
2020-08-03 13:56:03.955,0.023956298828125,-1.0001983642578125,-0.06744384765625,0.008697884157299995,0.014040185138583183,0.006416620220988989,0.7310502300896881,0.6820866886980412,0.017981928615694004,0.00022849873546443474
2020-08-03 13:56:03.965,0.0240478515625,-1.001007080078125,-0.06793212890625,0.011900335550308228,0.014480938203632832,0.00860573910176754,0.7310399927955223,0.6820970177476099,0.018005811828148085,0.000262615015202099
2020-08-03 13:56:03.975,0.0239715576171875,-0.9997406005859375,-0.06982421875,0.013460681773722172,0.017555557191371918,0.006389988586306572,0.7310193014116562,0.6821180619743168,0.018046100036692034,0.00029864603463151604
2020-08-03 13:56:03.984,0.023468017578125,-0.9980316162109375,-0.0710296630859375,0.014273477718234062,0.02143178880214691,0.006983873434364796,0.7309965503801967,0.6821410470989202,0.018098733358916493,0.00034253512393226694
2020-08-03 13:56:03.995,0.02410888671875,-0.9967041015625,-0.0710601806640625,0.012724850326776505,0.018017882481217384,0.008187889121472836,0.730978837930898,0.6821586699047715,0.018146096134255288,0.00038375459668646937
2020-08-03 13:56:04.005,0.0243072509765625,-0.9967041015625,-0.0709381103515625,0.01176131796091795,0.021885856986045837,0.009661415591835976,0.7309640713775146,0.6821729459017707,0.018204320444116285,0.0004329674718440181
2020-08-03 13:56:04.015,0.0249176025390625,-0.9970855712890625,-0.073028564453125,0.01341647282242775,0.02111007831990719,0.008258462883532047,0.7309422575446055,0.6821947175447303,0.018263823355791492,0.0004782609554011153
2020-08-03 13:56:04.025,0.02398681640625,-0.9965972900390625,-0.0727691650390625,0.01116157416254282,0.02587154507637024,0.008016381412744522,0.7309201426335505,0.6822166120472777,0.018328077789142833,0.0005389942236211538
2020-08-03 13:56:04.035,0.0216522216796875,-0.9970703125,-0.0692596435546875,0.011756790801882744,0.024591894820332527,0.008824383839964867,0.7308973079591384,0.6822393955387593,0.018387708110951737,0.000605166697588826
2020-08-03 13:56:04.045,0.0214691162109375,-0.99932861328125,-0.0691680908203125,0.008196410723030567,0.019084211438894272,0.007383880205452442,0.7308827364751367,0.6822536878678008,0.018434424393047967,0.0006631220076931208
2020-08-03 13:56:04.055,0.0235443115234375,-0.9995880126953125,-0.0690155029296875,0.0057076867669820786,0.02485155314207077,0.008742624893784523,0.7308815147328098,0.6822533713324712,0.018496723015941893,0.0007263609155695704
2020-08-03 13:56:04.065,0.0255584716796875,-0.9993743896484375,-0.0697021484375,0.00458569684997201,0.023316241800785065,0.009445699863135815,0.7308913463270497,0.6822413496883643,0.018550749963553444,0.0007924776095211174
2020-08-03 13:56:04.075,0.026153564453125,-1.001495361328125,-0.071502685546875,0.002831739140674472,0.024092286825180054,0.005783054046332836,0.7309077183130055,0.6822219145957742,0.018611702004565696,0.0008498799771722403
2020-08-03 13:56:04.085,0.0255584716796875,-1.0030975341796875,-0.07470703125,0.004701011814177036,0.023201193660497665,0.006853112485259771,0.7309168446711246,0.6822106489574283,0.018667334254652272,0.0009050203488609023
2020-08-03 13:56:04.095,0.027008056640625,-1.000518798828125,-0.0726165771484375,0.004010720644146204,0.018811771646142006,0.0059596216306090355,0.7309333182841241,0.6821917168342826,0.01871088831914556,0.00094367322659176
2020-08-03 13:56:04.105,0.0294647216796875,-0.99993896484375,-0.0702056884765625,0.0031430625822395086,0.012222577817738056,0.00631914846599102,0.7309610229531515,0.6821612646115442,0.018735524337952583,0.0009650549561565592
2020-08-03 13:56:04.115,0.030517578125,-0.9994049072265625,-0.067626953125,0.0022128205746412277,0.007743140682578087,0.008666724897921085,0.7309809593722904,0.6821400744328252,0.018727870216946194,0.0009829982457733987
2020-08-03 13:56:04.125,0.0307464599609375,-0.9971466064453125,-0.0670013427734375,0.0030184267088770866,0.006620618514716625,0.009164736606180668,0.7309888705503631,0.6821324443035856,0.018697523299691314,0.0009996058551676457
2020-08-03 13:56:04.135,0.0317535400390625,-0.9947052001953125,-0.068695068359375,0.006736732088029385,0.0024232103023678064,0.009380718693137169,0.7309882443859478,0.6821342042240404,0.018659443773607665,0.0010021593285841667
2020-08-03 13:56:04.145,0.032257080078125,-0.9936370849609375,-0.0709381103515625,0.005330583080649376,-1.4381069377122913e-05,0.010923488065600395,0.7309894143582132,0.6821339103155803,0.018623667592773355,0.0009888621891234253
2020-08-03 13:56:04.155,0.030914306640625,-0.994293212890625,-0.0715484619140625,0.007104514632374048,-0.0016335829859599471,0.01010856032371521,0.7309880511463371,0.6821364329328926,0.018586625301875534,0.0009679579115833411
2020-08-03 13:56:04.165,0.029571533203125,-0.994903564453125,-0.0724639892578125,0.008733836933970451,-0.002944657113403082,0.008609467186033726,0.7309944961765305,0.6821307666032276,0.01854643626285947,0.0009369753225751381
2020-08-03 13:56:04.175,0.0268096923828125,-0.9957275390625,-0.0724029541015625,0.009606288745999336,-0.00544456671923399,0.006585464812815189,0.7309989735494989,0.6821270368978175,0.018503772985811698,0.0008908587313924991
2020-08-03 13:56:04.185,0.0241851806640625,-0.99566650390625,-0.0714263916015625,0.009104548953473568,-0.004040814470499754,0.005757487844675779,0.7309946587851615,0.6821325916611283,0.018477523000485427,0.0008371376536681161
2020-08-03 13:56:04.194,0.023223876953125,-0.997039794921875,-0.0711822509765625,0.006592655088752508,-0.0036578518338501453,0.003031476167961955,0.7309887914995284,0.6821390001057552,0.018469889392340087,0.0007684630301540585
2020-08-03 13:56:04.204,0.022705078125,-0.997802734375,-0.071075439453125,0.006964965257793665,-0.0007430219557136297,0.0007153250626288354,0.7309806790235013,0.6821476129423348,0.018477534145644518,0.0006980952439473668
2020-08-03 13:56:04.214,0.0221405029296875,-0.9990234375,-0.069000244140625,0.009002283215522766,0.003151318524032831,-0.0017662084428593516,0.7309729796047773,0.6821550672755579,0.018507623792513427,0.0006280843875226781
2020-08-03 13:56:04.224,0.021942138671875,-0.999298095703125,-0.0685882568359375,0.006604905705899,0.0022383867762982845,-0.0018761969404295087,0.7309775842060787,0.6821492071503167,0.01854461652726049,0.0005559840586364922
2020-08-03 13:56:04.235,0.023468017578125,-0.9986572265625,-0.0688323974609375,0.005058408249169588,0.0044261738657951355,-0.0028093685396015644,0.7309891583217177,0.6821358637580456,0.01858434042782913,0.0004893445825853472
2020-08-03 13:56:04.245,0.0247955322265625,-0.9995880126953125,-0.068145751953125,0.005221393425017595,0.0030072415247559547,-0.000723048229701817,0.7310047053468647,0.6821184368440276,0.01861143970856205,0.00043459914717135575
2020-08-03 13:56:04.254,0.025421142578125,-0.9988861083984375,-0.0676116943359375,0.005750829819589853,0.006898119580000639,-0.0003062635369133204,0.7310182397113771,0.6821032917842854,0.01863711942214534,0.00039890481480452447
2020-08-03 13:56:04.264,0.0265655517578125,-0.998443603515625,-0.0682220458984375,0.0041585261933505535,0.005146558862179518,0.0033246902748942375,0.7310353477878442,0.6820849559423228,0.018635110529565714,0.0003786316411592619
2020-08-03 13:56:04.275,0.026580810546875,-0.9991455078125,-0.067657470703125,0.0035230957437306643,0.0058094197884202,0.005537777207791805,0.7310509351829831,0.6820686997444322,0.018623545883804486,0.00037106609893311146
2020-08-03 13:56:04.284,0.025115966796875,-1.000030517578125,-0.067169189453125,0.0057159424759447575,0.008717857301235199,0.007750331424176693,0.7310597645604778,0.6820594109378741,0.018612561596886956,0.0003805696569314492
2020-08-03 13:56:04.294,0.02532958984375,-1.0,-0.0683441162109375,0.007279484532773495,0.005452556069940329,0.005374525208026171,0.7310587999233572,0.6820608147545567,0.018599654203381836,0.00038655549677020853
2020-08-03 13:56:04.305,0.025726318359375,-0.999298095703125,-0.0706024169921875,0.007830225862562656,0.006585997529327869,0.008065116591751575,0.731052248129761,0.682068324050232,0.0185845917776604,0.00040129855797647364
2020-08-03 13:56:04.314,0.0258026123046875,-0.9985198974609375,-0.0710296630859375,0.0064744106493890285,0.00621155695989728,0.009349026717245579,0.7310477560832944,0.6820734506307884,0.018569390451562737,0.0004182965526359911
2020-08-03 13:56:04.325,0.0244903564453125,-0.997314453125,-0.0697784423828125,0.00634950865060091,0.014186658896505833,0.006048038601875305,0.731041856445988,0.6820793168866793,0.018587545224686815,0.0004384009091621781
2020-08-03 13:56:04.334,0.0229339599609375,-0.9958038330078125,-0.070465087890625,0.009500294923782349,0.014155765995383263,0.007849134504795074,0.7310267929026426,0.6820947614777157,0.018612346499235065,0.0004622206712381529
2020-08-03 13:56:04.344,0.0213470458984375,-0.993988037109375,-0.0704193115234375,0.009571400471031666,0.016813067719340324,0.005905027035623789,0.7310140775659523,0.6821071851135749,0.01865576973896048,0.0004891090714212211
2020-08-03 13:56:04.354,0.0201568603515625,-0.9951934814453125,-0.06939697265625,0.00939243659377098,0.0178796648979187,0.005654423497617245,0.7310011791776451,0.6821195108510346,0.018707504456174622,0.0005214169203620698
2020-08-03 13:56:04.364,0.0225067138671875,-0.996429443359375,-0.069610595703125,0.010065151378512383,0.022584937512874603,0.00506852800026536,0.7309817054942418,0.6821388857545952,0.018762998388548988,0.000565402358584887
2020-08-03 13:56:04.374,0.0238494873046875,-0.998199462890625,-0.068511962890625,0.008626244962215424,0.021447502076625824,0.007952199317514896,0.7309637935507776,0.6821569977097464,0.01880425795682885,0.0006134372357229027
2020-08-03 13:56:04.384,0.0245513916015625,-0.9987030029296875,-0.0670623779296875,0.008162056095898151,0.017362212762236595,0.006856841035187244,0.7309547648629556,0.6821656079980395,0.018837422688351396,0.0006461585625191571
2020-08-03 13:56:04.394,0.026611328125,-0.9989776611328125,-0.06695556640625,0.00808881875127554,0.01750762015581131,0.007691209204494953,0.7309507730958933,0.6821691548476558,0.018865245882397727,0.000681412050636359
2020-08-03 13:56:04.404,0.0287933349609375,-0.9992523193359375,-0.0674896240234375,0.008476309478282928,0.016227172687649727,0.007929029874503613,0.73094353491338,0.6821759962008119,0.018891708937876124,0.0007139430423210146
2020-08-03 13:56:04.414,0.0307464599609375,-0.9994049072265625,-0.0673980712890625,0.008525311015546322,0.014220480807125568,0.008141549304127693,0.7309381980239654,0.682181384176879,0.018904922656698714,0.0007469993777592387
2020-08-03 13:56:04.425,0.0311126708984375,-0.99835205078125,-0.06768798828125,0.010884338989853859,0.013026852160692215,0.007732221856713295,0.7309323513407598,0.6821873697097633,0.01891295093041342,0.0007777901631408467
2020-08-03 13:56:04.434,0.03070068359375,-0.9983367919921875,-0.06744384765625,0.010175139643251896,0.012971725314855576,0.006416620220988989,0.7309232212820264,0.6821971922875409,0.018914043652562024,0.0008089963258368447
2020-08-03 13:56:04.445,0.029815673828125,-0.9983978271484375,-0.0667266845703125,0.009037969633936882,0.010571683757007122,0.006465089973062277,0.7309128091837107,0.6822083353833532,0.018909300954439857,0.000832649671234518
2020-08-03 13:56:04.454,0.0290069580078125,-0.9982147216796875,-0.0675506591796875,0.011815646663308144,0.00523737259209156,0.007272027432918549,0.7308952816812184,0.6822274762727037,0.01889863011049976,0.0008379244335737102
2020-08-03 13:56:04.465,0.0271148681640625,-0.997894287109375,-0.0689849853515625,0.011953066103160381,0.006177734583616257,0.006677343975752592,0.7308717957505813,0.6822530222341079,0.018885672712110425,0.0008379304757817566
2020-08-03 13:56:04.475,0.0255279541015625,-0.9977874755859375,-0.068817138671875,0.010807107202708721,0.0032197616528719664,0.007270163390785456,0.7308539747466873,0.6822724246262347,0.018873043447053962,0.000822576677490033
2020-08-03 13:56:04.485,0.027435302734375,-0.9977569580078125,-0.06768798828125,0.009295497089624405,0.0012205267557874322,0.006640858482569456,0.7308416314551778,0.6822859646032411,0.018862176237641345,0.0007976358998167303
2020-08-03 13:56:04.495,0.027496337890625,-0.9982757568359375,-0.0672760009765625,0.003403519745916128,0.004176901653409004,0.007021424360573292,0.7308419497260302,0.6822855366500418,0.018863083956563192,0.0007655542914489135
2020-08-03 13:56:04.505,0.0270843505859375,-0.9986114501953125,-0.06878662109375,0.002822417998686433,0.0006471481174230576,0.006875216495245695,0.7308473955267298,0.6822798467014511,0.018860325227675917,0.0007232514955372426
2020-08-03 13:56:04.515,0.0266265869140625,-0.9973602294921875,-0.069488525390625,0.0008889631717465818,0.0030810111202299595,0.003760383464396,0.7308617639634394,0.6822641371716913,0.018873199169851328,0.0006825347024027751
2020-08-03 13:56:04.525,0.0274505615234375,-0.9985198974609375,-0.069427490234375,0.002284193178638816,0.005787048954516649,0.0024857944808900356,0.730871804609507,0.6822529752816989,0.018894719655440553,0.0006499314736576143
2020-08-03 13:56:04.535,0.028717041015625,-0.9992218017578125,-0.0705718994140625,0.0010370349045842886,0.007156446576118469,0.002071140334010124,0.7308801621545277,0.6822432031089408,0.018919711956513062,0.0006235822442826854
2020-08-03 13:56:04.545,0.027740478515625,-0.9986572265625,-0.0710906982421875,0.003879959462210536,0.011086206883192062,0.0029872676823288202,0.7308896200974323,0.682232401822437,0.018946042647266202,0.000615146306511407
2020-08-03 13:56:04.555,0.0287322998046875,-0.9981536865234375,-0.0699615478515625,0.003624029690399766,0.007279218174517155,0.003912982530891895,0.7309001155015087,0.6822205456661481,0.018965776937016298,0.0006046632915704883
2020-08-03 13:56:04.565,0.028076171875,-0.997894287109375,-0.0697174072265625,0.0008021441171877086,0.009066465310752392,0.0028674255590885878,0.7309108894162151,0.682208464353299,0.018989444616954405,0.0005958386321790396
2020-08-03 13:56:04.575,0.027374267578125,-0.9978485107421875,-0.069244384765625,0.0032740901224315166,0.011215902864933014,0.005476790945976973,0.7309164524197517,0.6822018787262903,0.01901212083577633,0.0005992534255977698
2020-08-03 13:56:04.585,0.02691650390625,-0.997711181640625,-0.06878662109375,0.0030336068011820316,0.012210859917104244,0.006867493502795696,0.7309245659717735,0.6821926436213447,0.019032002421336562,0.0006138618679604486
2020-08-03 13:56:04.594,0.0272369384765625,-0.9981689453125,-0.068634033203125,0.0031289479229599237,0.014092649333178997,0.007383347954601049,0.7309314079443798,0.6821847114021566,0.019052606276027305,0.000635211615427584
2020-08-03 13:56:04.605,0.0283660888671875,-0.9980316162109375,-0.06927490234375,0.002139050979167223,0.011599131859838963,0.007744206115603447,0.7309409851725995,0.6821740339557522,0.019068423063952677,0.0006520735586005022
2020-08-03 13:56:04.615,0.0290069580078125,-0.9984130859375,-0.0679168701171875,0.0033784860279411077,0.009073389694094658,0.0076086511835455894,0.7309529859476955,0.682160748796316,0.019082960146246997,0.0006605471019900788
2020-08-03 13:56:04.625,0.028778076171875,-0.9986572265625,-0.066925048828125,0.0023960459511727095,0.010849984362721443,0.00675217853859067,0.7309720388337627,0.6821396812982236,0.019105376374263162,0.0006674691256145348
2020-08-03 13:56:04.635,0.0287628173828125,-0.9990234375,-0.066680908203125,0.00012223910016473383,0.010545052587985992,0.005275455769151449,0.7309939122105298,0.6821154890706294,0.019129921272281122,0.0006677276970936778
2020-08-03 13:56:04.644,0.0298309326171875,-0.9994354248046875,-0.0658721923828125,0.0012058793799951673,0.015299327671527863,0.0031334753148257732,0.7310095176943907,0.6820976928175103,0.019168134171158653,0.0006687478953425162
2020-08-03 13:56:04.655,0.0301513671875,-0.9982452392578125,-0.0666046142578125,0.0027481159195303917,0.012169314548373222,0.003254116512835026,0.7310207246578189,0.682084812045579,0.019198946419463875,0.0006636436402360432
2020-08-03 13:56:04.665,0.0287322998046875,-0.9976043701171875,-0.06640625,0.002837864449247718,0.010261159390211105,0.0024831313639879227,0.7310320019435587,0.6820718167454243,0.019229360547873366,0.000652569090179151
2020-08-03 13:56:04.675,0.0296783447265625,-0.9967193603515625,-0.067352294921875,0.001365668955259025,0.008356466889381409,0.0012974920682609081,0.731046912233018,0.6820550303605231,0.019262808256916727,0.0006366997071540047
2020-08-03 13:56:04.685,0.0285797119140625,-0.9966888427734375,-0.0677032470703125,0.0011265170760452747,0.008806540630757809,0.0023126890882849693,0.7310612185758,0.6820388663502241,0.019294024241922798,0.0006214975347308589
2020-08-03 13:56:04.695,0.030059814453125,-0.9964599609375,-0.0680389404296875,0.0022394522093236446,0.0070459251292049885,0.0043502734042704105,0.7310715082435366,0.6820272143229071,0.019311610363051256,0.0006082384254276485
2020-08-03 13:56:04.705,0.03009033203125,-0.996917724609375,-0.0678558349609375,0.006701578386127949,0.009153816848993301,0.004810467828065157,0.7310692658278993,0.6820290388944733,0.019333831467770353,0.0006012489622271976
2020-08-03 13:56:04.715,0.0298919677734375,-0.9963836669921875,-0.069183349609375,0.004976915195584297,0.009270995855331421,0.004055994097143412,0.7310667231610594,0.6820310066841084,0.019359075679444164,0.0005944468968511942
2020-08-03 13:56:04.725,0.0297088623046875,-0.9963226318359375,-0.0689544677734375,0.004998753312975168,0.009105348028242588,0.004209392238408327,0.7310596749761923,0.6820378700081944,0.019383673425449645,0.0005855436419050387
2020-08-03 13:56:04.735,0.02899169921875,-0.9973907470703125,-0.068328857421875,0.005305016878992319,0.008504006080329418,0.005575594026595354,0.7310520837994263,0.6820453797678088,0.019409057425342838,0.0005721325969529657
2020-08-03 13:56:04.745,0.028961181640625,-0.998565673828125,-0.0677032470703125,0.0067662931978702545,0.008769523352384567,0.004850681405514479,0.7310417000970445,0.6820556059112277,0.01943661654262699,0.0005579500696563187
2020-08-03 13:56:04.755,0.0304107666015625,-0.9984588623046875,-0.0684356689453125,0.004824582487344742,0.01013599056750536,0.0011574097443372011,0.7310363060381905,0.6820604218240778,0.019473094232480094,0.0005401920411277333
2020-08-03 13:56:04.765,0.030853271484375,-0.9983367919921875,-0.0679931640625,0.0041550640016794205,0.009619071148335934,0.000494016392622143,0.7310388975264825,0.6820567487142524,0.019506597671824156,0.0005226063084628786
2020-08-03 13:56:04.775,0.0305328369140625,-0.996673583984375,-0.0670318603515625,0.003979029133915901,0.009069927968084812,0.0002846919232979417,0.7310412493563726,0.6820532239669618,0.019542687458161404,0.0005000637045053293
2020-08-03 13:56:04.785,0.0298309326171875,-0.9971771240234375,-0.0673828125,0.0041673146188259125,0.010247045196592808,6.338323146337643e-05,0.7310420277972365,0.6820510057040738,0.019589315445640496,0.0004744606575893019
2020-08-03 13:56:04.795,0.02838134765625,-0.9968109130859375,-0.0690765380859375,0.006353237200528383,0.011925368569791317,0.0010729875648394227,0.7310429184475932,0.6820490712929086,0.019627026881333984,0.0004646347684628179
2020-08-03 13:56:04.805,0.02838134765625,-0.9975433349609375,-0.0699310302734375,0.005711948033422232,0.010656372644007206,0.005796636454761028,0.7310430254460076,0.6820482636686139,0.019650046848105174,0.0004707328894397785
2020-08-03 13:56:04.815,0.028717041015625,-0.99755859375,-0.0699920654296875,0.006636597216129303,0.01013599056750536,0.008767392486333847,0.7310428674813246,0.6820480618220028,0.019662122699561847,0.000484143935774636
2020-08-03 13:56:04.825,0.0279998779296875,-0.998016357421875,-0.0693817138671875,0.005994775798171759,0.007817177101969719,0.009618006646633148,0.7310434326145717,0.6820474667273222,0.019662038384933102,0.000491832673823649
2020-08-03 13:56:04.835,0.0288543701171875,-0.9977264404296875,-0.0692138671875,0.004423776641488075,0.009033975191414356,0.008402006700634956,0.7310445334942833,0.6820461642313667,0.019666343748331712,0.0004995836055293121
2020-08-03 13:56:04.845,0.02984619140625,-0.9976654052734375,-0.070831298828125,0.005586512852460146,0.00842597521841526,0.007822503335773945,0.7310432052093663,0.6820472995815744,0.01967622889409553,0.0004959569720031833
2020-08-03 13:56:04.855,0.0302581787109375,-0.998504638671875,-0.07061767578125,0.005426457151770592,0.004749215207993984,0.010044644586741924,0.731040386675416,0.6820506129678597,0.019668204902660982,0.0004872721177100279
2020-08-03 13:56:04.865,0.030731201171875,-0.99798583984375,-0.0701751708984375,0.003870638320222497,0.005046157632023096,0.00854581780731678,0.7310392938849424,0.682051873490501,0.01966240230570032,0.00047377369094681737
2020-08-03 13:56:04.875,0.0303955078125,-0.9988861083984375,-0.0703582763671875,0.006711698602885008,0.0036820864770561457,0.009620136581361294,0.7310422100422459,0.6820492784948213,0.019644860729594156,0.00046404896443080247
2020-08-03 13:56:04.884,0.0308380126953125,-0.998931884765625,-0.070953369140625,0.0007190534961409867,0.004704474005848169,0.006986004300415516,0.73105849109958,0.6820322238352207,0.01963023452323624,0.000448199452500863
2020-08-03 13:56:04.895,0.0309295654296875,-0.9985504150390625,-0.07012939453125,0.0005776396137662232,0.004388090688735247,0.0065471152774989605,0.7310791566083757,0.6820104213455649,0.019618897005051966,0.0004244866554169516
2020-08-03 13:56:04.905,0.0300445556640625,-0.998077392578125,-0.0692596435546875,5.459480235003866e-05,0.002013349672779441,0.005175853613764048,0.7311011011884203,0.6819872391482976,0.01960829859076276,0.00039339650403381367
2020-08-03 13:56:04.915,0.0297698974609375,-0.9979095458984375,-0.068023681640625,-0.0002918824611697346,0.0006748450105078518,0.004633633885532618,0.731122325626272,0.6819649165210856,0.0195955736988825,0.00036271699453221257
2020-08-03 13:56:04.924,0.02789306640625,-0.99847412109375,-0.0674591064453125,5.246427463134751e-05,0.0034413367975503206,0.0043870252557098866,0.7311447284348003,0.6819410953969808,0.01958861227688321,0.0003382702369873272
2020-08-03 13:56:04.935,0.02642822265625,-0.9986114501953125,-0.0679779052734375,-0.0007344998302869499,0.005787048954516649,0.007180947344750166,0.7311728474635881,0.681910961187733,0.019586249264393875,0.00032447323032692467
2020-08-03 13:56:04.945,0.0261993408203125,-0.998260498046875,-0.06768798828125,-0.0013638047967106104,0.006441654171794653,0.007041664328426123,0.7311994851290571,0.6818823959031078,0.019587325716904698,0.00031498506863754556
2020-08-03 13:56:04.955,0.02655029296875,-0.99932861328125,-0.0684661865234375,-0.0033036512322723866,0.006080795545130968,0.008611864410340786,0.7312308605061378,0.6818489182019187,0.019580360456554556,0.0003081279965472059
2020-08-03 13:56:04.965,0.0272064208984375,-0.9997406005859375,-0.0693511962890625,-0.0016327840276062489,0.0026770094409585,0.010466222651302814,0.7312586927156713,0.6818196584738785,0.01955942284436872,0.00029843875444837686
2020-08-03 13:56:04.975,0.0294647216796875,-0.99957275390625,-0.06817626953125,-0.0008868326549418271,0.007765777874737978,0.00905661191791296,0.7312833975631051,0.6817932486848263,0.019554625279360943,0.0002911016843311215
2020-08-03 13:56:04.985,0.0298309326171875,-0.998687744140625,-0.068450927734375,0.0009243832319043577,0.002817890839651227,0.01025556679815054,0.7313015514987297,0.681774526515427,0.01952974721222111,0.0002832506322700632
2020-08-03 13:56:04.995,0.0299072265625,-0.9982757568359375,-0.0687103271484375,0.0005613943794742227,0.00177952426020056,0.01210007257759571,0.7313177031985455,0.6817580078588387,0.01949997923800686,0.0002783834456685022
2020-08-03 13:56:05.005,0.0298309326171875,-0.997528076171875,-0.0701904296875,0.0007888282998465002,0.002118011936545372,0.01041349209845066,0.7313329965348875,0.6817423155969449,0.01947596206825245,0.0002755402983149191
2020-08-03 13:56:05.015,0.0296783447265625,-0.9972686767578125,-0.0712890625,0.0017710020765662193,0.003941478207707405,0.010485131293535233,0.731347160933608,0.6817278138703389,0.01945714488527943,0.00027744976181238827
2020-08-03 13:56:05.025,0.0290069580078125,-0.998565673828125,-0.071044921875,0.002098304685205221,0.003988616168498993,0.010522682219743729,0.7313529439112426,0.6817222354647767,0.01943479480905564,0.00028243187641710694
2020-08-03 13:56:05.035,0.0288543701171875,-0.99847412109375,-0.070953369140625,0.0010482202051207423,0.004578772932291031,0.011692342348396778,0.7313613078426422,0.6817139634141628,0.019408339117651108,0.0002859048082540297
2020-08-03 13:56:05.045,0.0292510986328125,-0.99755859375,-0.0716094970703125,0.005322061013430357,0.0016684704460203648,0.011085940524935722,0.7313628970540502,0.681713283942636,0.0193749325012582,0.0002825612191342062
2020-08-03 13:56:05.055,0.0294647216796875,-0.9968414306640625,-0.072296142578125,0.0041761030443012714,0.0014924354618415236,0.012383699417114258,0.731365290787964,0.6817115134423912,0.019343060068032342,0.0002868253629213346
2020-08-03 13:56:05.065,0.02947998046875,-0.99664306640625,-0.0717620849609375,0.003457049373537302,0.0031063109636306763,0.013656689785420895,0.7313643886032926,0.6817132516450187,0.019316945817305965,0.0002925697776133291
2020-08-03 13:56:05.075,0.0283050537109375,-0.9977874755859375,-0.0692291259765625,0.0034344124142080545,0.0026818031910806894,0.014112357050180435,0.731368945681537,0.6817093005183938,0.019282959529073905,0.00029535428107569164
2020-08-03 13:56:05.084,0.028533935546875,-0.9979400634765625,-0.069610595703125,0.0046693203039467335,0.0006737797521054745,0.01257864199578762,0.7313749940551316,0.681703817855417,0.019247420275318596,0.00028792599319014435
2020-08-03 13:56:05.095,0.0292205810546875,-0.99810791015625,-0.0698394775390625,0.002037051832303405,0.0019361181184649467,0.009729593060910702,0.7313890284247954,0.681689488299175,0.01922410745169188,0.00027051043512486654
2020-08-03 13:56:05.105,0.0299224853515625,-0.996734619140625,-0.070831298828125,0.0025806031189858913,-0.000245543458731845,0.008590025827288628,0.7313998850340282,0.6816786121772436,0.01919606287714362,0.0002445436368709343
2020-08-03 13:56:05.115,0.0299530029296875,-0.996490478515625,-0.070648193359375,0.005279184319078922,-0.0011206581257283688,0.00893969926983118,0.7314032879705155,0.6816758731670288,0.019160383633541833,0.00021879547038021474
2020-08-03 13:56:05.125,0.0308990478515625,-0.9969329833984375,-0.0713043212890625,0.006413957104086876,-0.0011659319279715419,0.00945022702217102,0.7314021610377762,0.681678230518566,0.01912219006427192,0.00019301350703582708
2020-08-03 13:56:05.135,0.0302886962890625,-0.99755859375,-0.07183837890625,0.007547398563474417,-0.003713778220117092,0.009794041514396667,0.731398853714055,0.6816828897647591,0.019080875519684976,0.0001600369743257543
2020-08-03 13:56:05.145,0.02838134765625,-0.9960174560546875,-0.0731048583984375,0.008451275527477264,-0.00155262288171798,0.008262723684310913,0.7313990498551486,0.6816836363347489,0.019052917550466827,0.0001282026076171658
2020-08-03 13:56:05.155,0.0269775390625,-0.99615478515625,-0.07110595703125,0.00558118661865592,0.0003478088474366814,0.010039584711194038,0.7313995368537093,0.6816837823694273,0.01902533717052761,0.00011216054242058418
2020-08-03 13:56:05.165,0.02581787109375,-0.9971160888671875,-0.069061279296875,0.003933755215257406,0.00033396040089428425,0.010010289959609509,0.7314048819824667,0.6816787912975694,0.018998669581745717,9.864760127859147e-05
2020-08-03 13:56:05.175,0.0264739990234375,-0.99749755859375,-0.069305419921875,0.001752093667164445,-0.0002103897277265787,0.007358047645539045,0.7314199812636535,0.6816631537498996,0.018980128681815117,8.19151852917907e-05
2020-08-03 13:56:05.185,0.026397705078125,-0.99822998046875,-0.06903076171875,0.0012266519479453564,0.003518834710121155,0.009661415591835976,0.731440183001161,0.6816418339985604,0.018968292969066665,7.733320671745453e-05
2020-08-03 13:56:05.195,0.0273895263671875,-1.0000762939453125,-0.0700531005859375,-0.00041758365114219487,0.005307679995894432,0.01050563808530569,0.7314621590705828,0.6816184845610903,0.018956710902595,7.899472526060741e-05
2020-08-03 13:56:05.205,0.028045654296875,-1.001556396484375,-0.073455810546875,0.001088700257241726,0.005396629683673382,0.01136930100619793,0.7314813231882724,0.6815982316079268,0.018945398155473414,8.153401933976186e-05
2020-08-03 13:56:05.215,0.02862548828125,-1.00054931640625,-0.074676513671875,0.0012596751330420375,0.007438475266098976,0.012165320105850697,0.731500831844943,0.6815775880130462,0.01893688614529895,8.51866537976715e-05
2020-08-03 13:56:05.225,0.0286407470703125,-0.9989776611328125,-0.072906494140625,-0.0014644722687080503,0.002730805426836014,0.012562663294374943,0.7315344893783782,0.6815422077886301,0.018909257072845867,8.194509723501164e-05
2020-08-03 13:56:05.235,0.0288848876953125,-0.997894287109375,-0.0707550048828125,-0.00669492082670331,0.0014628743520006537,0.012773851864039898,0.7315754161010736,0.6814992533076423,0.018871841182109616,7.896519438161699e-05
2020-08-03 13:56:05.245,0.02923583984375,-0.9979705810546875,-0.069732666015625,-0.0029523803386837244,0.00037736992817372084,0.012499546632170677,0.7316071314211093,0.6814663691242475,0.018829669025867135,7.361165951591357e-05
2020-08-03 13:56:05.254,0.0299072265625,-0.996734619140625,-0.0701446533203125,-0.0017994979862123728,0.0013187973527237773,0.011659319512546062,0.7316302115116349,0.6814428563929968,0.018786403900906024,6.757522726569265e-05
2020-08-03 13:56:05.265,0.0309295654296875,-0.9959259033203125,-0.0721282958984375,-0.003425357863306999,0.0027350664604455233,0.010433199815452099,0.7316588955310628,0.6814130236281429,0.01875338782974257,6.147906480688699e-05
2020-08-03 13:56:05.275,0.031158447265625,-0.994903564453125,-0.0725860595703125,-0.0007912251749075949,-0.0004183826094958931,0.013067332096397877,0.731682868000771,0.6813883257152886,0.01871458964860346,6.065214692769355e-05
2020-08-03 13:56:05.285,0.0292816162109375,-0.995635986328125,-0.0721435546875,0.0003371562052052468,0.0023883229587227106,0.013030581176280975,0.7317027444178046,0.6813679370781452,0.018679371251155635,6.344664841387467e-05
2020-08-03 13:56:05.295,0.0278472900390625,-0.9965362548828125,-0.0722198486328125,0.0041007352992892265,0.0019374496769160032,0.012148541398346424,0.7317185286972894,0.6813517279415684,0.018648628966133347,5.940872560422292e-05
2020-08-03 13:56:05.305,0.02667236328125,-0.9962005615234375,-0.07342529296875,0.003924966789782047,0.002948119305074215,0.012607404962182045,0.7317307658991856,0.6813393632657434,0.018620442983698485,5.7931318649947355e-05
2020-08-03 13:56:05.315,0.024627685546875,-0.9965362548828125,-0.0729217529296875,0.006810768041759729,0.005360676907002926,0.013220197521150112,0.7317284440738039,0.6813425969217672,0.018593884379430395,6.274438960056014e-05
2020-08-03 13:56:05.325,0.025299072265625,-0.997467041015625,-0.0738372802734375,0.006902114488184452,0.001261805766262114,0.012090484611690044,0.7317241619024454,0.6813479833808793,0.01856674107384692,5.6863467224648606e-05
2020-08-03 13:56:05.335,0.0264739990234375,-0.997314453125,-0.07305908203125,0.007577758282423019,0.004341219086199999,0.011773035861551762,0.7317182696785561,0.6813547673789402,0.018552526981376383,5.6095524007036476e-05
2020-08-03 13:56:05.345,0.0271453857421875,-0.9963531494140625,-0.0726470947265625,0.009486978873610497,0.0057383133098483086,0.01187902968376875,0.731711127653815,0.6813624730164018,0.018546098964854475,5.515918092624354e-05
