Timestamp,AccelX,AccelY,AccelZ,GyroX,GyroY,GyroZ,QuatW,QuatX,QuatY,QuatZ
2021-01-14 15:04:59.424,0.11018549909397046,-0.9117789171179946,-0.15074158201412277,0.0,0.0,0.0,0.6460610032081604,0.4759970009326935,0.3865230083465576,0.45456600189208984
2021-01-14 15:04:59.433,0.11018549909397046,-0.9117789171179946,-0.15074158201412277,0.0,0.0,0.0,0.670166015625,0.4983980059623718,0.3608439862728119,0.41505101323127747
2021-01-14 15:04:59.443,0.11018549909397046,-0.9117789171179946,-0.15074158201412277,0.04342396557331085,0.01033767219632864,-5.277875461615622E-4,0.6900510191917419,0.5175769925117493,0.3362630009651184,0.37797999382019043
2021-01-14 15:04:59.453,0.004886275119319254,-0.9391420714709223,-0.3569423909090003,0.051365215331315994,0.013391999527812004,-5.277875461615622E-4,0.7061460018157959,0.5337439775466919,0.31334298849105835,0.34393298625946045
2021-01-14 15:04:59.463,0.008795294834642994,-0.9369432682893714,-0.3755102352220185,0.056863002479076385,0.017057189717888832,8.30776771181263E-5,0.7194719910621643,0.5479739904403687,0.29142001271247864,0.3116999864578247
2021-01-14 15:04:59.473,0.013681571094357237,-0.9325455646125637,-0.36305023699390643,0.06174992397427559,0.015835460275411606,0.0025265386793762445,0.7308200001716614,0.5595129728317261,0.27007898688316345,0.2826699912548065
2021-01-14 15:04:59.483,0.012948628591031443,-0.9303467614310128,-0.3461925837458396,0.05869559943675995,0.010948537848889828,0.0037482690531760454,0.7400879859924316,0.5688470005989075,0.25045299530029297,0.2568170130252838
2021-01-14 15:04:59.493,0.012704314930098397,-0.9281479582494618,-0.3532777027207978,0.04892175272107124,0.004839885048568249,0.003137403866276145,0.7478659749031067,0.5765990018844604,0.2321390062570572,0.2331089973449707
2021-01-14 15:04:59.503,0.010994119303567067,-0.9257048003527583,-0.36280593093560665,0.034260984510183334,0.0011746938107535243,0.0013048081891611218,0.7543339729309082,0.5826839804649353,0.2155119925737381,0.21216100454330444
2021-01-14 15:04:59.513,0.011238432964500115,-0.9252161882361587,-0.35987416092230345,0.028152335435152054,-0.004323093220591545,6.939428858458996E-4,0.7599170207977295,0.5873299837112427,0.2002429962158203,0.193572998046875
2021-01-14 15:04:59.523,0.007085099208111665,-0.9283923129646144,-0.35865258197395167,0.025098009034991264,-0.0049339584074914455,-0.0011386527912691236,0.7651249766349792,0.5910120010375977,0.18528200685977936,0.1759449988603592
2021-01-14 15:04:59.533,0.005863530143183105,-0.9342557556775151,-0.3581639698573521,0.01776762492954731,-0.005544823594391346,-0.0017495180945843458,0.7699699997901917,0.5938420295715332,0.1707179993391037,0.15921899676322937
2021-01-14 15:04:59.543,0.005374902821317011,-0.9398750383026745,-0.3559651423473747,0.009215513244271278,-0.005544823594391346,-0.0029712487012147903,0.7743710279464722,0.5958189964294434,0.15699799358844757,0.14387300610542297
2021-01-14 15:04:59.553,0.0026874514106585055,-0.9408522625358736,-0.3557208362890749,-0.0011691960971802473,-0.005544823594391346,-0.0029712487012147903,0.778406023979187,0.5971419811248779,0.14395000040531158,0.12954799830913544
2021-01-14 15:04:59.563,0.00415333375638845,-0.9376762351211235,-0.3613400459289551,-0.007888713851571083,-0.005544823594391346,-0.003582113655284047,0.7820299863815308,0.5978869795799255,0.1318569928407669,0.11649899929761887
2021-01-14 15:04:59.573,0.002443137559659627,-0.9347444651078204,-0.3581639698573521,-0.010943040251731873,-0.005544823594391346,-0.0029712487012147903,0.7852140069007874,0.598110020160675,0.1210549995303154,0.10510700196027756
2021-01-14 15:04:59.583,0.0026874514106585055,-0.9305911161461654,-0.35498789378574913,-0.010332174599170685,-0.009210015647113323,-0.004192979075014591,0.7881039977073669,0.5979840159416199,0.11106599867343903,0.09471199661493301
2021-01-14 15:04:59.593,-2.443137559659627E-4,-0.933034274042869,-0.3491243537591428,-0.0060561178252100945,-0.011653476394712925,-0.004192979075014591,0.7907400131225586,0.5976510047912598,0.1016329973936081,0.08492899686098099
2021-01-14 15:04:59.603,0.0012215687798298135,-0.9349887225092673,-0.3547435633990229,-0.0060561178252100945,-0.009210015647113323,-0.003582113655284047,0.7931060194969177,0.5971720218658447,0.09283199906349182,0.07582700252532959
2021-01-14 15:04:59.613,0.0026874514106585055,-0.9374318804059709,-0.35352200877909756,-0.00849957950413227,-0.0049339584074914455,-0.003582113655284047,0.7951679825782776,0.5965510010719299,0.08501400053501129,0.06786199659109116
2021-01-14 15:04:59.623,0.0029317650715915524,-0.9401192957041214,-0.3566980848507005,-0.013386500999331474,-0.002490497659891844,-0.0023603832814842463,0.7970399856567383,0.595848023891449,0.07771699875593185,0.060423001646995544
2021-01-14 15:04:59.633,0.003909020095455403,-0.940363650419274,-0.35205612377244594,-0.015829961746931076,-0.0037122280336916447,-0.0011386527912691236,0.7986909747123718,0.5950350165367126,0.07139000296592712,0.0541049987077713
2021-01-14 15:04:59.643,0.006107843804116151,-0.9388977167557696,-0.3579196637990523,-0.015219097025692463,-0.004323093220591545,-0.0023603832814842463,0.8001750111579895,0.5941640138626099,0.06577599793672562,0.048590000718832016
2021-01-14 15:04:59.653,0.008062353851843852,-0.9335228861594687,-0.36207298843228086,-0.010943040251731873,-0.006155689246952534,-0.0023603832814842463,0.8015270233154297,0.5933420062065125,0.06033099815249443,0.04311399906873703
2021-01-14 15:04:59.663,0.005863530143183105,-0.9313240829779177,-0.3496129902041688,-0.0060561178252100945,-0.007988284341990948,-0.0023603832814842463,0.802715003490448,0.5924779772758484,0.055821001529693604,0.03874000161886215
2021-01-14 15:04:59.673,0.0026874514106585055,-0.9286365703660614,-0.35718672129572654,-0.0017800614004954696,-0.007988284341990948,-0.0023603832814842463,0.8038409948348999,0.5916590094566345,0.05117100104689598,0.03403199836611748
2021-01-14 15:04:59.683,0.0029317650715915524,-0.928880925081214,-0.35083454482409415,-5.58330852072686E-4,-0.007988284341990948,-0.0029712487012147903,0.8048440217971802,0.5909010171890259,0.04678500071167946,0.02953300066292286
2021-01-14 15:04:59.693,-7.329412678978881E-4,-0.9323013072111168,-0.3554765059023487,-0.0017800614004954696,-0.006155689246952534,-0.0029712487012147903,0.8057680130004883,0.5901380181312561,0.042750999331474304,0.02541700005531311
2021-01-14 15:04:59.703,-0.0014658825357957762,-0.9337671435609155,-0.35449925734072313,-0.0030017916578799486,-0.002490497659891844,-0.0023603832814842463,0.8066120147705078,0.5894079804420471,0.03890100121498108,0.02144699916243553
2021-01-14 15:04:59.713,9.772550238638508E-4,-0.9362103014576191,-0.35181181771414616,-0.0036126570776104927,0.0017855591140687466,-5.277875461615622E-4,0.8080689907073975,0.5878880023956299,0.03365800157189369,0.016680000349879265
2021-01-14 15:04:59.723,-0.0019545100477277016,-0.9357216893410195,-0.3532777027207978,-0.0036126570776104927,0.0017855591140687466,-5.277875461615622E-4,0.8080689907073975,0.5878880023956299,0.03365800157189369,0.016680000349879265
2021-01-14 15:04:59.733,2.443137559659627E-4,-0.9374318804059709,-0.35425495128242335,-0.0011691960971802473,-0.001268767169676721,0.0025265386793762445,0.808709979057312,0.5871959924697876,0.03125699982047081,0.01449500024318695
2021-01-14 15:04:59.744,0.003909020095455403,-0.9366989135742186,-0.3527890662757718,0.004939456470310688,-0.001268767169676721,0.0025265386793762445,0.8093000054359436,0.5865560173988342,0.028866000473499298,0.012300999835133553
2021-01-14 15:04:59.754,0.003909020095455403,-0.9369432682893714,-0.3579196637990523,0.009826377965509892,-4.703662489191629E-5,0.004359134007245302,0.8098490238189697,0.585968017578125,0.02626200020313263,0.009723000228404999
2021-01-14 15:04:59.764,0.0031760787325245993,-0.9364546561727718,-0.3554765059023487,0.01043724361807108,0.002396424300968647,0.004359134007245302,0.8103470206260681,0.5853980183601379,0.0241870004683733,0.007786999922245741
2021-01-14 15:04:59.774,0.0031760787325245993,-0.9345001103926678,-0.35425495128242335,0.01165897399187088,0.005450750235468149,0.003137403866276145,0.8107839822769165,0.5848730206489563,0.022568000480532646,0.006444000173360109
2021-01-14 15:04:59.784,0.005863530143183105,-0.933034274042869,-0.3491243537591428,0.01165897399187088,0.008505076169967651,0.0037482690531760454,0.8111900091171265,0.5843700170516968,0.021253999322652817,0.00544800003990531
2021-01-14 15:04:59.794,0.006107843804116151,-0.9323013072111168,-0.3527890662757718,0.009215513244271278,0.007894211448729038,0.0037482690531760454,0.8115710020065308,0.5838980078697205,0.019883999601006508,0.004317999817430973
2021-01-14 15:04:59.804,0.003909020095455403,-0.933034274042869,-0.352544760217472,0.004939456470310688,0.008505076169967651,0.00496999965980649,0.8119249939918518,0.5834619998931885,0.018411999568343163,0.0029770000837743282
2021-01-14 15:04:59.814,0.0036647064345223562,-0.9371875256908182,-0.3510788752108204,-0.0017800614004954696,0.007894211448729038,0.00558086484670639,0.812283992767334,0.5830270051956177,0.01646300032734871,9.069999796338379E-4
2021-01-14 15:04:59.824,0.00415333375638845,-0.9391420714709223,-0.3552321998440489,-0.010943040251731873,0.005450750235468149,0.006191730033606291,0.8126180171966553,0.582617998123169,0.014318999834358692,-0.0014750000555068254
2021-01-14 15:04:59.834,0.0034203927735893093,-0.9381648472377232,-0.35865258197395167,-0.015829961746931076,0.004839885048568249,0.006191730033606291,0.8129220008850098,0.5822280049324036,0.012430000118911266,-0.0035429999697953463
2021-01-14 15:04:59.844,0.006352157465049199,-0.9357216893410195,-0.35987416092230345,-0.016440825536847115,0.003618154674768448,0.00558086484670639,0.8132510185241699,0.5817880034446716,0.010754999704658985,-0.005313999950885773
2021-01-14 15:04:59.854,0.004397647417321497,-0.9337671435609155,-0.35865258197395167,-0.013386500999331474,0.002396424300968647,0.004359134007245302,0.8135769963264465,0.581341028213501,0.009738000109791756,-0.0061889998614788055
2021-01-14 15:04:59.864,0.004886275119319254,-0.9335228861594687,-0.3588969123606779,-0.012164769694209099,-6.579018663614988E-4,0.0037482690531760454,0.8142060041427612,0.5804709792137146,0.009534000419080257,-0.005483000073581934
2021-01-14 15:04:59.874,0.004886275119319254,-0.933034274042869,-0.35449925734072313,-0.012164769694209099,-6.579018663614988E-4,0.0037482690531760454,0.8142060041427612,0.5804709792137146,0.009534000419080257,-0.005483000073581934
2021-01-14 15:04:59.884,0.006352157465049199,-0.9315683403793645,-0.3554765059023487,-0.014608231373131275,-0.001268767169676721,0.0025265386793762445,0.814507007598877,0.5800529718399048,0.009340000338852406,-0.005288000218570232
2021-01-14 15:04:59.894,0.006840785547178619,-0.9308353735476124,-0.3527890662757718,-0.018273422494530678,-0.0018796323565766215,8.30776771181263E-5,0.8147969841957092,0.5796520113945007,0.008892999961972237,-0.005483000073581934
2021-01-14 15:04:59.905,0.0051305887802523,-0.9296137945992605,-0.35156748732741994,-0.019495153799653053,-0.0018796323565766215,8.30776771181263E-5,0.8150759935379028,0.5792620182037354,0.0077390000224113464,-0.006717999931424856
2021-01-14 15:04:59.915,0.007085099208111665,-0.931079728262765,-0.3510788752108204,-0.019495153799653053,-4.703662489191629E-5,6.939428858458996E-4,0.8153330087661743,0.5788940191268921,0.006049000192433596,-0.008740000426769257
2021-01-14 15:04:59.925,0.0034203927735893093,-0.9335228861594687,-0.3523004298307458,-0.019495153799653053,0.0011746938107535243,8.30776771181263E-5,0.8158159852027893,0.5781930088996887,0.004015999846160412,-0.010976999998092651
2021-01-14 15:04:59.935,0.006107843804116151,-0.940363650419274,-0.35083454482409415,-0.018884288147091866,0.004229020327329636,-0.0011386527912691236,0.8160449862480164,0.5778679847717285,0.0036869999021291733,-0.011146999895572662
2021-01-14 15:04:59.945,0.004886275119319254,-0.9442726446657764,-0.3547435633990229,-0.018884288147091866,0.004229020327329636,-0.0011386527912691236,0.8160449862480164,0.5778679847717285,0.0036869999021291733,-0.011146999895572662
2021-01-14 15:04:59.955,0.007085099208111665,-0.9459828357307277,-0.360851409483929,-0.018884288147091866,0.007283346261829138,-0.0011386527912691236,0.8162580132484436,0.5775690078735352,0.0035170000046491623,-0.011132000014185905
2021-01-14 15:04:59.965,0.0083066675127769,-0.9440283872643295,-0.3581639698573521,-0.014608231373131275,0.008505076169967651,-0.0011386527912691236,0.8164550065994263,0.5772870182991028,0.003183000022545457,-0.011367999948561192
2021-01-14 15:04:59.975,0.009283922916772413,-0.9418294867690727,-0.35718672129572654,-0.004223522264510393,0.009115941822528839,-0.0023603832814842463,0.8166379928588867,0.5770249962806702,0.0028780000284314156,-0.011579000391066074
2021-01-14 15:04:59.985,0.006840785547178619,-0.9388977167557696,-0.3564537787924007,0.0055503216572105885,0.013391999527812004,-5.277875461615622E-4,0.816785991191864,0.5768129825592041,0.0025949999690055847,-0.011789999902248383
2021-01-14 15:04:59.995,0.006840785547178619,-0.9357216893410195,-0.3523004298307458,0.014102434739470482,0.015224593691527843,0.0019156733760610223,0.8169040083885193,0.5766459703445435,0.002460000105202198,-0.01180499978363514
2021-01-14 15:05:00.005,0.00415333375638845,-0.9357216893410195,-0.3523004298307458,0.018989356234669685,0.015224593691527843,0.003137403866276145,0.8169900178909302,0.5765179991722107,0.0020810000132769346,-0.012157999910414219
2021-01-14 15:05:00.015,0.005619216482250057,-0.9332785314443159,-0.35449925734072313,0.018989356234669685,0.014613729901611805,0.0025265386793762445,0.8170539736747742,0.5764179825782776,0.0015719999792054296,-0.012694000266492367
2021-01-14 15:05:00.025,0.006352157465049199,-0.9340114982760682,-0.35376631483739734,0.01715676113963127,0.009726807475090027,0.0019156733760610223,0.8171120285987854,0.5763239860534668,0.0010499999625608325,-0.013249999843537807
2021-01-14 15:05:00.035,0.006596471125982245,-0.9332785314443159,-0.35303337233407156,0.01776762492954731,0.006672481074929237,0.003137403866276145,0.8171759843826294,0.5762230157852173,5.47999981790781E-4,-0.013772999867796898
2021-01-14 15:05:00.045,0.005374902821317011,-0.9315683403793645,-0.352544760217472,0.015935031697154045,0.008505076169967651,0.006802595220506191,0.817238986492157,0.576125979423523,1.8099999579135329E-4,-0.014090999960899353
2021-01-14 15:05:00.055,0.0017101963867946547,-0.9276593461328623,-0.35425495128242335,0.011048109270632267,0.009115941822528839,0.006802595220506191,0.8173140287399292,0.5760260224342346,2.1100000594742596E-4,-0.013830999843776226
2021-01-14 15:05:00.065,0.0029317650715915524,-0.9276593461328623,-0.35010160232076837,0.006772052496671677,0.009726807475090027,0.006802595220506191,0.8173969984054565,0.5759090185165405,1.0299999848939478E-4,-0.01377199962735176
2021-01-14 15:05:00.075,0.0034203927735893093,-0.9335228861594687,-0.3496129902041688,0.004328591283410788,0.010948537848889828,0.00558086484670639,0.8175010085105896,0.5757730007171631,2.7099999715574086E-4,-0.013314000330865383
2021-01-14 15:05:00.085,0.006107843804116151,-0.93840910463917,-0.348880047700843,0.004328591283410788,0.012170268222689629,0.00496999965980649,0.8176029920578003,0.5756329894065857,2.9200001154094934E-4,-0.01307700015604496
2021-01-14 15:05:00.095,0.008795294834642994,-0.9413408746524732,-0.35156748732741994,0.003106860676780343,0.014002864249050617,0.0037482690531760454,0.81768399477005,0.5755040049552917,-2.6500000967644155E-4,-0.013675999827682972
2021-01-14 15:05:00.105,0.008062353851843852,-0.9428068083159777,-0.35010160232076837,0.001274264883249998,0.01766805537045002,0.004359134007245302,0.8177580237388611,0.5753840208053589,-7.730000070296228E-4,-0.01423100009560585
2021-01-14 15:05:00.115,0.007085099208111665,-0.9440283872643295,-0.34863574164254324,-0.0017800614004954696,0.016446325927972794,0.006802595220506191,0.8178290128707886,0.5752670168876648,-0.0013200000394135714,-0.01486700028181076
2021-01-14 15:05:00.125,0.007085099208111665,-0.9423181961993781,-0.3562094484056745,0.001274264883249998,0.017057189717888832,0.009246056899428368,0.8179029822349548,0.5751489996910095,-0.0017109999898821115,-0.01527199987322092
2021-01-14 15:05:00.135,0.002443137559659627,-0.9418294867690727,-0.3579196637990523,0.006772052496671677,0.015835460275411606,0.00863519124686718,0.8179609775543213,0.5750550031661987,-0.0021089999936521053,-0.015678999945521355
2021-01-14 15:05:00.145,0.0031760787325245993,-0.9376762351211235,-0.35987416092230345,0.015935031697154045,0.018278921023011208,0.008024326525628567,0.818015992641449,0.5749830007553101,-0.0020699999295175076,-0.015471000224351883
2021-01-14 15:05:00.156,0.0,-0.9340114982760682,-0.35938552447727745,0.030595796182751656,0.0237767081707716,0.008024326525628567,0.8180429935455322,0.5749409794807434,-0.0022330000065267086,-0.015550999902188778
2021-01-14 15:05:00.166,0.0019545100477277016,-0.9293695371978137,-0.3576753334123261,0.04281310364603996,0.028052764013409615,0.006802595220506191,0.8180350065231323,0.5749469995498657,-0.0024449999909847975,-0.01570799946784973
2021-01-14 15:05:00.176,0.0034203927735893093,-0.9242389640029595,-0.352544760217472,0.05747386813163757,0.028663629665970802,0.00558086484670639,0.8180040121078491,0.5749890208244324,-0.002595999976620078,-0.015782000496983528
2021-01-14 15:05:00.186,0.003909020095455403,-0.9225287729380082,-0.35181181771414616,0.06541511416435242,0.024387573823332787,0.004359134007245302,0.8179219961166382,0.5750740170478821,-0.003379999892786145,-0.016755999997258186
2021-01-14 15:05:00.196,0.004641961458386207,-0.9237503518863599,-0.35376631483739734,0.06174992397427559,0.02011151611804962,0.0019156733760610223,0.8178279995918274,0.575186014175415,-0.003924999851733446,-0.01738700084388256
2021-01-14 15:05:00.206,0.006596471125982245,-0.9266821218996631,-0.3532777027207978,0.0360935814678669,0.014002864249050617,-0.0017495180945843458,0.8177369832992554,0.5753200054168701,-0.003955000080168247,-0.017169000580906868
2021-01-14 15:05:00.216,0.010994119303567067,-0.9371875256908182,-0.3557208362890749,0.0360935814678669,0.014002864249050617,-0.0017495180945843458,0.8177369832992554,0.5753200054168701,-0.003955000080168247,-0.017169000580906868
2021-01-14 15:05:00.226,0.012704314930098397,-0.9432954204325773,-0.35181181771414616,0.015935031697154045,0.012781133875250816,-0.0029712487012147903,0.8177629709243774,0.5753059983253479,-0.00355300004594028,-0.016491999849677086
2021-01-14 15:05:00.236,0.015147453059955518,-0.9474487693942323,-0.35205612377244594,0.006161186844110489,0.012781133875250816,-0.003582113655284047,0.8178349733352661,0.5752149820327759,-0.0033599999733269215,-0.016145000234246254
2021-01-14 15:05:00.246,0.013437255912897537,-0.9479373815108318,-0.348880047700843,-0.0030017916578799486,0.010948537848889828,-0.003582113655284047,0.8179240226745605,0.5751010179519653,-0.0031159999780356884,-0.01575700007379055
2021-01-14 15:05:00.256,0.011482746625433162,-0.9454942236141282,-0.35181181771414616,-0.007277848664671183,0.008505076169967651,-0.0029712487012147903,0.8180209994316101,0.5749679803848267,-0.0030060000717639923,-0.015583000145852566
2021-01-14 15:05:00.266,0.006352157465049199,-0.9430510657174246,-0.3540106208956971,-0.009110444225370884,0.003618154674768448,-0.0029712487012147903,0.8181170225143433,0.5748350024223328,-0.00292299990542233,-0.015453999862074852
2021-01-14 15:05:00.276,0.005619216482250057,-0.9423181961993781,-0.35352200877909756,-0.007277848664671183,-0.002490497659891844,-0.0023603832814842463,0.8182229995727539,0.5747069716453552,-0.0023900000378489494,-0.014677999541163445
2021-01-14 15:05:00.286,0.002443137559659627,-0.942562453600825,-0.3496129902041688,-0.0036126570776104927,-0.009210015647113323,-0.003582113655284047,0.8183090090751648,0.5745869874954224,-0.0023640000727027655,-0.014593999832868576
2021-01-14 15:05:00.296,9.772550238638508E-4,-0.9410966172510263,-0.3471698566358916,-0.0030017916578799486,-0.014707802794873714,-0.0060255746357142925,0.8183860182762146,0.5744839906692505,-0.002251999918371439,-0.01436999998986721
2021-01-14 15:05:00.306,0.0012215687798298135,-0.9386534593543228,-0.34863574164254324,-0.010943040251731873,-0.018983859568834305,-0.008469035848975182,0.8185030221939087,0.574292004108429,-0.002937000012025237,-0.015189000405371189
2021-01-14 15:05:00.316,0.005619216482250057,-0.9371875256908182,-0.3476584687524912,-0.015829961746931076,-0.020816456526517868,-0.008469035848975182,0.8185759782791138,0.5741770267486572,-0.0032430000137537718,-0.015541000291705132
2021-01-14 15:05:00.326,0.007818040190910806,-0.9313240829779177,-0.35059023876579437,-0.015829961746931076,-0.020816456526517868,-0.008469035848975182,0.8185759782791138,0.5741770267486572,-0.0032430000137537718,-0.015541000291705132
2021-01-14 15:05:00.337,0.011482746625433162,-0.9276593461328623,-0.34814710519751724,-0.018273422494530678,-0.020816456526517868,-0.006636439822614193,0.8186540007591248,0.5740470290184021,-0.003708000062033534,-0.016117999330163002
2021-01-14 15:05:00.347,0.011971373947299255,-0.9266821218996631,-0.34863574164254324,-0.021327748894691467,-0.024481644853949547,-0.004192979075014591,0.8187350034713745,0.5739049911499023,-0.004337000194936991,-0.01692100055515766
2021-01-14 15:05:00.357,0.01172706028636621,-0.9303467614310128,-0.3474141626941914,-0.021327748894691467,-0.02875770442187786,-0.0017495180945843458,0.818818986415863,0.5737500190734863,-0.005080000031739473,-0.01787400059401989
2021-01-14 15:05:00.367,0.01172706028636621,-0.931079728262765,-0.35083454482409415,-0.030490728095173836,-0.03303375840187073,-5.277875461615622E-4,0.8189939856529236,0.5734130144119263,-0.006742999888956547,-0.019984999671578407
2021-01-14 15:05:00.377,0.006596471125982245,-0.9318126950945173,-0.3584082759156519,-0.025603804737329483,-0.03242289274930954,8.30776771181263E-5,0.8190950155258179,0.5732250213623047,-0.0075079998932778835,-0.02095399983227253
2021-01-14 15:05:00.387,0.002443137559659627,-0.9369432682893714,-0.35059023876579437,-0.01705169305205345,-0.03242289274930954,-0.0011386527912691236,0.8191959857940674,0.5730500221252441,-0.008040999993681908,-0.021585000678896904
2021-01-14 15:05:00.397,7.329412678978881E-4,-0.9464714478473273,-0.3437494501775625,-0.01705169305205345,-0.03242289274930954,-0.0011386527912691236,0.8191959857940674,0.5730500221252441,-0.008040999993681908,-0.021585000678896904
2021-01-14 15:05:00.407,0.0012215687798298135,-0.9494032178606305,-0.34448239268088826,-0.010332174599170685,-0.03181202709674835,-0.004192979075014591,0.8192579746246338,0.5729100108146667,-0.008834999985992908,-0.022585999220609665
2021-01-14 15:05:00.417,0.0034203927735893093,-0.9506247968089823,-0.3461925837458396,-0.014608231373131275,-0.03181202709674835,-0.006636439822614193,0.8193089962005615,0.5728189945220947,-0.009154999628663063,-0.022926000878214836
2021-01-14 15:05:00.427,0.0034203927735893093,-0.9474487693942323,-0.3466812201908656,-0.021327748894691467,-0.031201165169477463,-0.007247305475175381,0.8193780183792114,0.5727289915084839,-0.009097999893128872,-0.02274000085890293
2021-01-14 15:05:00.437,0.004397647417321497,-0.9440283872643295,-0.34448239268088826,-0.024992940947413445,-0.029979433864355087,-0.0060255746357142925,0.8194649815559387,0.5726199746131897,-0.008934999816119671,-0.022407999262213707
2021-01-14 15:05:00.447,9.772550238638508E-4,-0.9440283872643295,-0.3461925837458396,-0.028658133000135422,-0.026925107464194298,-0.005414709448814392,0.8195679783821106,0.5725070238113403,-0.008497999981045723,-0.02167700044810772
2021-01-14 15:05:00.457,7.329412678978881E-4,-0.9408522625358736,-0.3474141626941914,-0.03232332319021225,-0.026925107464194298,-0.004803844261914492,0.8196759819984436,0.5723839998245239,-0.008104999549686909,-0.021013999357819557
2021-01-14 15:05:00.467,-0.0012215687798298135,-0.9406080051344268,-0.3491243537591428,-0.03232332319021225,-0.026925107464194298,-0.006636439822614193,0.8197780251502991,0.5722439885139465,-0.008054999634623528,-0.020831000059843063
2021-01-14 15:05:00.477,-0.002443137559659627,-0.9349887225092673,-0.3652490645038838,-0.03232332319021225,-0.02631424181163311,-0.006636439822614193,0.8198670148849487,0.5721009969711304,-0.008357999846339226,-0.02116299979388714
2021-01-14 15:05:00.488,-0.0031760787325245993,-0.9293695371978137,-0.3503459327074946,-0.028658133000135422,-0.020816456526517868,-0.003582113655284047,0.8200590014457703,0.5717999935150146,-0.008848000317811966,-0.021637000143527985
2021-01-14 15:05:00.498,-0.0017101963867946547,-0.9303467614310128,-0.36036279736732946,-0.028658133000135422,-0.020816456526517868,-0.003582113655284047,0.8200590014457703,0.5717999935150146,-0.008848000317811966,-0.021637000143527985
2021-01-14 15:05:00.508,-0.0026874514106585055,-0.9281479582494618,-0.37941925379694724,-0.02621467038989067,-0.015929533168673515,-0.0011386527912691236,0.820152997970581,0.5716549754142761,-0.009077999740839005,-0.02182300016283989
2021-01-14 15:05:00.518,-0.0014658825357957762,-0.9271707340162627,-0.3498572962624686,-0.02316034585237503,-0.011653476394712925,0.0013048081891611218,0.820248007774353,0.5715090036392212,-0.00928799994289875,-0.021966999396681786
2021-01-14 15:05:00.528,0.002443137559659627,-0.9264377671845104,-0.3667149495105354,-0.019495153799653053,-0.007988284341990948,0.0037482690531760454,0.8203529715538025,0.571340024471283,-0.009646999649703503,-0.022300999611616135
2021-01-14 15:05:00.538,0.0051305887802523,-0.9293695371978137,-0.31931809016636437,-0.015219097025692463,-6.579018663614988E-4,0.00496999965980649,0.8204489946365356,0.5711960196495056,-0.00982499960809946,-0.02236800082027912
2021-01-14 15:05:00.548,-0.0019545100477277016,-0.9296137945992605,-0.37770906273199584,-0.013386500999331474,0.003618154674768448,0.00863519124686718,0.8205350041389465,0.5710520148277283,-0.010195000097155571,-0.0227269995957613
2021-01-14 15:05:00.558,4.886275119319254E-4,-0.9332785314443159,-0.36891377702051276,-0.010332174599170685,0.009115941822528839,0.00985692162066698,0.8205900192260742,0.5709620118141174,-0.010431000031530857,-0.02290700003504753
2021-01-14 15:05:00.568,0.0029317650715915524,-0.9362103014576191,-0.380152196300273,-0.012775635346770287,0.007283346261829138,0.00985692162066698,0.8206509947776794,0.5708540081977844,-0.01077600009739399,-0.023235000669956207
2021-01-14 15:05:00.578,0.005619216482250057,-0.9381648472377232,-0.3562094484056745,-0.013997365720570087,0.007894211448729038,0.011078651994466782,0.8207150101661682,0.5707150101661682,-0.011470000259578228,-0.024058999493718147
2021-01-14 15:05:00.588,0.006352157465049199,-0.9379204925225705,-0.3417949530543113,-0.013997365720570087,0.012170268222689629,0.010467786341905594,0.8208180069923401,0.5705540180206299,-0.011707999743521214,-0.02422500029206276
2021-01-14 15:05:00.598,0.004886275119319254,-0.9408522625358736,-0.37184554703381595,-0.012775635346770287,0.011559403501451015,0.01291124802082777,0.8209099769592285,0.5704079866409302,-0.011951999738812447,-0.024435000494122505
2021-01-14 15:05:00.608,0.004886275119319254,-0.9391420714709223,-0.3576753334123261,-0.009110444225370884,0.013391999527812004,0.012300382368266582,0.820976972579956,0.570294976234436,-0.012233000248670578,-0.02469800040125847
2021-01-14 15:05:00.618,0.004397647417321497,-0.9396306835875219,-0.3679365284588872,-0.005445253103971481,0.013391999527812004,0.012300382368266582,0.8210340142250061,0.5701820254325867,-0.012663000263273716,-0.025191999971866608
2021-01-14 15:05:00.628,0.006352157465049199,-0.9386534593543228,-0.35010160232076837,-5.58330852072686E-4,0.015224593691527843,0.01291124802082777,0.8210620284080505,0.5700820088386536,-0.013402000069618225,-0.02613699994981289
2021-01-14 15:05:00.638,0.004641961458386207,-0.9369432682893714,-0.35352200877909756,0.002495995257049799,0.019500650465488434,0.011078651994466782,0.8210880160331726,0.5699989795684814,-0.01395499985665083,-0.026816999539732933
2021-01-14 15:05:00.648,0.00415333375638845,-0.93523307722442,-0.352544760217472,0.0018851301865652204,0.02072238177061081,0.011078651994466782,0.8210830092430115,0.5699390172958374,-0.014720000326633453,-0.027840999886393547
2021-01-14 15:05:00.658,0.00415333375638845,-0.9342557556775151,-0.3581639698573521,-0.0017800614004954696,0.021333245560526848,0.00985692162066698,0.8210989832878113,0.5698950290679932,-0.014957999810576439,-0.02811400033533573
2021-01-14 15:05:00.669,0.004886275119319254,-0.9349887225092673,-0.35914121841897767,-0.007888713851571083,0.019500650465488434,0.00863519124686718,0.8211410045623779,0.5698540210723877,-0.014782000333070755,-0.02780500054359436
2021-01-14 15:05:00.679,0.004641961458386207,-0.93523307722442,-0.36305023699390643,-0.01155390590429306,0.017057189717888832,0.008024326525628567,0.8211889863014221,0.5697810053825378,-0.01486399956047535,-0.027876000851392746
2021-01-14 15:05:00.689,0.009039609255839366,-0.9354773346258669,-0.3557208362890749,-0.012164769694209099,0.016446325927972794,0.006802595220506191,0.821278989315033,0.5697090029716492,-0.014267000369727612,-0.02696800045669079
2021-01-14 15:05:00.699,0.00952823657770546,-0.9354773346258669,-0.35352200877909756,-0.01155390590429306,0.018278921023011208,0.00558086484670639,0.821366012096405,0.5696250200271606,-0.013836000114679337,-0.02631000056862831
2021-01-14 15:05:00.709,0.010016863899571554,-0.9345001103926678,-0.3554765059023487,-0.013997365720570087,0.018278921023011208,0.003137403866276145,0.8214349746704102,0.5695419907569885,-0.013664999976754189,-0.026050999760627747
2021-01-14 15:05:00.719,0.012215687608232302,-0.9325455646125637,-0.3552321998440489,-0.016440825536847115,0.01766805537045002,0.003137403866276145,0.82150799036026,0.5694569945335388,-0.013430999591946602,-0.025730999186635017
2021-01-14 15:05:00.729,0.01417019841622333,-0.93523307722442,-0.35718672129572654,-0.02071688510477543,0.015224593691527843,0.0025265386793762445,0.82156902551651,0.5693569779396057,-0.013550999574363232,-0.025929000228643417
2021-01-14 15:05:00.739,0.011238432964500115,-0.933034274042869,-0.35865258197395167,-0.021938614547252655,0.012781133875250816,0.0019156733760610223,0.8216410279273987,0.569242000579834,-0.013663000427186489,-0.026125000789761543
2021-01-14 15:05:00.749,0.008795294834642994,-0.9349887225092673,-0.3566980848507005,-0.018884288147091866,0.012781133875250816,0.0013048081891611218,0.8217179775238037,0.5691239833831787,-0.013704000040888786,-0.02622699923813343
2021-01-14 15:05:00.759,0.006596471125982245,-0.933034274042869,-0.35181181771414616,-0.016440825536847115,0.016446325927972794,0.0019156733760610223,0.8217830061912537,0.5690169930458069,-0.013822999782860279,-0.02645000070333481
2021-01-14 15:05:00.769,0.005619216482250057,-0.9327899193277164,-0.3579196637990523,-0.014608231373131275,0.021333245560526848,0.0025265386793762445,0.8218439817428589,0.5689240097999573,-0.01384500041604042,-0.026537999510765076
2021-01-14 15:05:00.779,0.0014658825357957762,-0.9320569524959641,-0.35718672129572654,-0.012775635346770287,0.022554976865649223,0.003137403866276145,0.8218910098075867,0.5688409805297852,-0.013988999649882317,-0.02680799923837185
2021-01-14 15:05:00.789,0.005619216482250057,-0.9325455646125637,-0.3564537787924007,-0.013386500999331474,0.022554976865649223,0.004359134007245302,0.8219299912452698,0.568763017654419,-0.014178999699652195,-0.027135999873280525
2021-01-14 15:05:00.799,0.005374902821317011,-0.9325455646125637,-0.3559651423473747,-0.016440825536847115,0.02072238177061081,0.00496999965980649,0.8219910264015198,0.5686920285224915,-0.01398599985986948,-0.026889000087976456
2021-01-14 15:05:00.809,0.0012215687798298135,-0.933034274042869,-0.3569423909090003,-0.018884288147091866,0.021333245560526848,0.00496999965980649,0.8220720291137695,0.5686159729957581,-0.013539000414311886,-0.026263000443577766
2021-01-14 15:05:00.819,2.443137559659627E-4,-0.9342557556775151,-0.3566980848507005,-0.021327748894691467,0.025609305128455162,0.004359134007245302,0.822160005569458,0.5685319900512695,-0.013034000061452389,-0.025553999468684196
2021-01-14 15:05:00.829,-0.0012215687798298135,-0.93523307722442,-0.35718672129572654,-0.024992940947413445,0.03232882171869278,0.0025265386793762445,0.8222399950027466,0.56843101978302,-0.012849000282585621,-0.025313999503850937
2021-01-14 15:05:00.839,-0.0017101963867946547,-0.93840910463917,-0.3552321998440489,-0.02682553604245186,0.04088093712925911,0.0013048081891611218,0.8223159909248352,0.568310022354126,-0.012953000143170357,-0.02552100084722042
2021-01-14 15:05:00.849,0.0,-0.9396306835875219,-0.35083454482409415,-0.028047265484929085,0.05004391446709633,6.939428858458996E-4,0.8223900198936462,0.5681800246238708,-0.013167999684810638,-0.025911999866366386
2021-01-14 15:05:00.859,-0.0012215687798298135,-0.93840910463917,-0.3540106208956971,-0.028047265484929085,0.06103948876261711,-5.277875461615622E-4,0.8224480152130127,0.5680410265922546,-0.013724000193178654,-0.026819000020623207
2021-01-14 15:05:00.869,0.0017101963867946547,-0.9366989135742186,-0.3564537787924007,-0.02621467038989067,0.06775899976491928,-0.0011386527912691236,0.8225290179252625,0.5679259896278381,-0.0136329997330904,-0.02682499960064888
2021-01-14 15:05:00.879,0.006352157465049199,-0.9393864261860749,-0.3564537787924007,-0.027436401695013046,0.07264592498540878,8.30776771181263E-5,0.8226109743118286,0.567825973033905,-0.01334299985319376,-0.02655700035393238
2021-01-14 15:05:00.889,0.0073294128690447125,-0.9401192957041214,-0.35376631483739734,-0.02682553604245186,0.08058717101812363,6.939428858458996E-4,0.8226850032806396,0.5677170157432556,-0.013288999907672405,-0.026635000482201576
2021-01-14 15:05:00.899,0.010749805642634022,-0.9413408746524732,-0.35181181771414616,-0.024382077157497406,0.0921936184167862,0.007413460873067379,0.8227840065956116,0.5676270127296448,-0.012595999985933304,-0.025814000517129898
2021-01-14 15:05:00.909,0.01319294225196449,-0.9440283872643295,-0.3527890662757718,-0.02621467038989067,0.09585881233215332,0.011689516715705395,0.822842001914978,0.5675349831581116,-0.012597999535501003,-0.02598699927330017
2021-01-14 15:05:00.919,0.014658825738089425,-0.9474487693942323,-0.3510788752108204,-0.03598851338028908,0.1019674614071846,0.013522112742066383,0.8229020237922668,0.567441999912262,-0.01257999986410141,-0.026120999827980995
2021-01-14 15:05:00.929,0.01417019841622333,-0.9523349878739337,-0.3510788752108204,-0.0500384122133255,0.10624351352453232,0.015354708768427372,0.8229870200157166,0.567313015460968,-0.012552999891340733,-0.02626200020313263
2021-01-14 15:05:00.939,0.012704314930098397,-0.9491589604591836,-0.35376631483739734,-0.07997080683708191,0.12090428173542023,0.01291124802082777,0.8232920169830322,0.5669199824333191,-0.011762999929487705,-0.02553500048816204
2021-01-14 15:05:00.949,0.015147453059955518,-0.9503805394075354,-0.36280593093560665,-0.07997080683708191,0.12090428173542023,0.01291124802082777,0.8232920169830322,0.5669199824333191,-0.011762999929487705,-0.02553500048816204
2021-01-14 15:05:00.959,0.022965493250866324,-0.9415852293676259,-0.3659820070072096,-0.09096638858318329,0.13495418429374695,0.006802595220506191,0.8234990239143372,0.5666459798812866,-0.011316999793052673,-0.025167999789118767
2021-01-14 15:05:00.969,0.028584708972853055,-0.9364546561727718,-0.36256162487730687,-0.08730119466781616,0.1471714973449707,0.0013048081891611218,0.8237389922142029,0.5663269758224487,-0.010747999884188175,-0.02472499944269657
2021-01-14 15:05:00.979,0.032982357910701206,-0.9305911161461654,-0.3552321998440489,-0.07630562037229538,0.15572360157966614,-0.0029712487012147903,0.8239709734916687,0.5660179853439331,-0.010131999850273132,-0.0243149995803833
2021-01-14 15:05:00.989,0.04202196488575059,-0.9279036035343091,-0.3474141626941914,-0.06592091172933578,0.15572360157966614,-0.0011386527912691236,0.8241729736328125,0.5657520294189453,-0.009460999630391598,-0.02390900067985058
2021-01-14 15:05:00.999,0.048374123111063115,-0.929125182482661,-0.3466812201908656,-0.06164485588669777,0.1477823555469513,0.003137403866276145,0.8243460059165955,0.5655329823493958,-0.008724000304937363,-0.023419000208377838
2021-01-14 15:05:01.009,0.05228314472704517,-0.9357216893410195,-0.34228356517091085,-0.06103399023413658,0.1331215798854828,0.007413460873067379,0.8244950175285339,0.5653420090675354,-0.008043999783694744,-0.023005999624729156
2021-01-14 15:05:01.019,0.05448196615491594,-0.9503805394075354,-0.34301650767423664,-0.07080782949924469,0.11296303570270538,0.008024326525628567,0.824633002281189,0.565168023109436,-0.0073739998042583466,-0.02259800024330616
2021-01-14 15:05:01.029,0.05106157794290659,-0.9635734558105468,-0.34790279913921746,-0.09157725423574448,0.09646967053413391,0.007413460873067379,0.8247780203819275,0.5649769902229309,-0.0067460001446306705,-0.02227099984884262
2021-01-14 15:05:01.039,0.04519804399840686,-0.9687040290054009,-0.3588969123606779,-0.11601186543703079,0.09036102145910263,0.006802595220506191,0.8249539732933044,0.5647339820861816,-0.006155999843031168,-0.02205199934542179
2021-01-14 15:05:01.049,0.039578828276420126,-0.9647950347588986,-0.36207298843228086,-0.1508311778306961,0.10135658830404282,0.00496999965980649,0.8251990079879761,0.5644299983978271,-0.004923999775201082,-0.02094700001180172
2021-01-14 15:05:01.059,0.033959612554433395,-0.9584428826156927,-0.37135691058878995,-0.1703788787126541,0.11907168477773666,0.008024326525628567,0.8258460164070129,0.5635160207748413,-0.0034580000210553408,-0.02035200037062168
2021-01-14 15:05:01.069,0.033959612554433395,-0.9464714478473273,-0.3818624116936508,-0.1703788787126541,0.11907168477773666,0.008024326525628567,0.8258460164070129,0.5635160207748413,-0.0034580000210553408,-0.02035200037062168
2021-01-14 15:05:01.079,0.03664706434522356,-0.931079728262765,-0.3840612148752018,-0.17465491592884064,0.12579120695590973,0.00985692162066698,0.826216995716095,0.5629900097846985,-0.0027089999057352543,-0.01999500021338463
2021-01-14 15:05:01.089,0.04226628006721029,-0.9242389640029595,-0.3755102352220185,-0.1618267446756363,0.13067813217639923,0.014743844047188759,0.8266209959983826,0.5624110102653503,-0.001993000041693449,-0.019641000777482986
2021-01-14 15:05:01.099,0.04788549578919702,-0.9191083908081054,-0.37111260453049016,-0.13372695446014404,0.14228455722332,0.022074226289987564,0.8270120024681091,0.5618489980697632,-0.0013520000502467155,-0.01934099942445755
2021-01-14 15:05:01.109,0.05619216330197392,-0.9130004960663464,-0.3581639698573521,-0.10379455238580704,0.1575561910867691,0.033680666238069534,0.8273339867591858,0.561385989189148,-7.120000082068145E-4,-0.019013000652194023
2021-01-14 15:05:01.119,0.06743059474594738,-0.9120232718331472,-0.33959612554433394,-0.0750838965177536,0.16122138500213623,0.04650883376598358,0.8275790214538574,0.5610380172729492,-5.700000110664405E-5,-0.018637999892234802
2021-01-14 15:05:01.129,0.07598158048123729,-0.9151992992478973,-0.32738043337452166,-0.05614706873893738,0.1569453328847885,0.0605587400496006,0.8277400135993958,0.5608149766921997,6.079999729990959E-4,-0.0182109996676445
2021-01-14 15:05:01.139,0.07671451690245647,-0.924971833521006,-0.3229827783545669,-0.05370360612869263,0.1477823555469513,0.07521950453519821,0.8278229832649231,0.5607060194015503,0.0013010000111535192,-0.017734000459313393
2021-01-14 15:05:01.149,0.07304981046793411,-0.929125182482661,-0.3308008155044244,-0.06775350868701935,0.13678677380084991,0.08926939964294434,0.8278599977493286,0.5606679916381836,0.002070999937132001,-0.01716800034046173
2021-01-14 15:05:01.159,0.06401020653393803,-0.928880925081214,-0.3393517951576077,-0.08791206032037735,0.12395860999822617,0.10026497393846512,0.8278819918632507,0.5606489777565002,0.0028830000665038824,-0.016561999917030334
2021-01-14 15:05:01.169,0.05594785116156753,-0.9252161882361587,-0.35181181771414616,-0.10196196287870407,0.11418475955724716,0.10881709307432175,0.8279190063476562,0.560604989528656,0.0036460000555962324,-0.016023999080061913
2021-01-14 15:05:01.179,0.047152556326924534,-0.9222844182228555,-0.36036279736732946,-0.09096638858318329,0.10929784178733826,0.11003881692886353,0.828046977519989,0.5604349970817566,0.004970999900251627,-0.015003000386059284
2021-01-14 15:05:01.189,0.035669809701491376,-0.9117789171179946,-0.35938552447727745,-0.09096638858318329,0.10929784178733826,0.11003881692886353,0.828046977519989,0.5604349970817566,0.004970999900251627,-0.015003000386059284
2021-01-14 15:05:01.199,0.02663019968538868,-0.8988303554301359,-0.3540106208956971,-0.07080782949924469,0.12273687869310379,0.10270843654870987,0.8281139731407166,0.560342013835907,0.005491000134497881,-0.014569000340998173
2021-01-14 15:05:01.209,0.022965493250866324,-0.8897906906750737,-0.3557208362890749,-0.05920139327645302,0.12273687869310379,0.10331930220127106,0.828158974647522,0.5602840185165405,0.006056000012904406,-0.014012999832630157
2021-01-14 15:05:01.219,0.017590589669285988,-0.881972702182069,-0.3510788752108204,-0.054925337433815,0.1123521625995636,0.10209757089614868,0.8281999826431274,0.560234010219574,0.0065449997782707214,-0.013400999829173088
2021-01-14 15:05:01.229,0.018812159494477874,-0.8775749985052614,-0.35181181771414616,-0.054314471781253815,0.10074573010206223,0.09721065312623978,0.8282560110092163,0.5601599812507629,0.006945000030100346,-0.012760000303387642
2021-01-14 15:05:01.239,0.017101962347419893,-0.8704898795303033,-0.35987416092230345,-0.054925337433815,0.10135658830404282,0.09171286970376968,0.8283309936523438,0.5600590109825134,0.00725799985229969,-0.012132000178098679
2021-01-14 15:05:01.249,0.010994119303567067,-0.8621832789206991,-0.3564537787924007,-0.05614706873893738,0.10135658830404282,0.07705210149288177,0.8284220099449158,0.5599330067634583,0.007505999878048897,-0.011566000059247017
2021-01-14 15:05:01.259,-0.0031760787325245993,-0.8555867720623405,-0.35010160232076837,-0.051260147243738174,0.09585881233215332,0.062391333281993866,0.8285369873046875,0.5597699880599976,0.007741000037640333,-0.01107100024819374
2021-01-14 15:05:01.269,-0.014658825738089425,-0.8507004562689333,-0.3439937805642887,-0.03782111033797264,0.09036102145910263,0.03978931903839111,0.8286529779434204,0.5596039891242981,0.007977000437676907,-0.010610999539494514
2021-01-14 15:05:01.279,-0.018812159494477874,-0.8487460078025351,-0.35083454482409415,-0.02621467038989067,0.08608496189117432,0.00985692162066698,0.8287400007247925,0.5594779849052429,0.008210999891161919,-0.010250999592244625
2021-01-14 15:05:01.289,-0.020278041460076154,-0.8607173452571946,-0.3403290680476597,-0.019495153799653053,0.08547409623861313,-0.028016723692417145,0.828794002532959,0.5593979954719543,0.008452000096440315,-0.010030999779701233
2021-01-14 15:05:01.299,-0.018567845833544826,-0.8915008817400251,-0.3425278955576371,-0.009721309877932072,0.06775899976491928,-0.10315315425395966,0.8288490176200867,0.5593090057373047,0.009069000370800495,-0.009934999980032444
2021-01-14 15:05:01.309,-0.010016863899571554,-0.9364546561727718,-0.33642004947273096,-0.018273422494530678,0.08119804412126541,-0.1306420862674713,0.828836977481842,0.5593199729919434,0.009355000220239162,-0.010111999697983265
2021-01-14 15:05:01.319,-0.006352157465049199,-0.99777737442328,-0.3491243537591428,-0.018273422494530678,0.08119804412126541,-0.1306420862674713,0.828836977481842,0.5593199729919434,0.009355000220239162,-0.010111999697983265
2021-01-14 15:05:01.329,4.886275119319254E-4,-1.0459071762707768,-0.41655496675141,-0.045151494443416595,0.1068543791770935,-0.13980506360530853,0.8288050293922424,0.5593569874763489,0.009781000204384327,-0.010228999890387058
2021-01-14 15:05:01.339,0.021010982442875296,-1.063253441635443,-0.4207082670562121,-0.0958533063530922,0.10929784178733826,-0.1306420862674713,0.8287889957427979,0.5593709945678711,0.01025800034403801,-0.010312999598681927
2021-01-14 15:05:01.349,0.0334709852325673,-1.0710715274421536,-0.3869929848885049,-0.1709897369146347,0.05065477639436722,-0.08482719212770462,0.8289300203323364,0.5591530203819275,0.010718000121414661,-0.010343000292778015
2021-01-14 15:05:01.359,0.03053921826031743,-1.0520150710125358,-0.3618286823739811,-0.19420260190963745,-0.012875206768512726,-0.04695354402065277,0.8292930126190186,0.5586119890213013,0.010897999629378319,-0.010323000140488148
2021-01-14 15:05:01.369,0.0012215687798298135,-1.0085272302432935,-0.4361000352976273,-0.19970040023326874,-0.06357702612876892,-0.008469035848975182,0.8296849727630615,0.5580310225486755,0.010753000155091286,-0.010377000086009502
2021-01-14 15:05:01.379,-0.033959612554433395,-0.944761256782376,-0.3730671016537413,-0.16976800560951233,-0.11427883803844452,0.054450083523988724,0.8304150104522705,0.5569620132446289,0.009602000005543232,-0.010521999560296535
2021-01-14 15:05:01.389,-0.07549295011831789,-0.8980973885983836,-0.36011846698060324,-0.16976800560951233,-0.11427883803844452,0.054450083523988724,0.8304150104522705,0.5569620132446289,0.009602000005543232,-0.010521999560296535
2021-01-14 15:05:01.399,-0.10994119303567068,-0.8646263395036969,-0.28780161118020814,-0.16549193859100342,-0.11794403195381165,0.05933700501918793,0.8307380080223083,0.5564960241317749,0.008686999790370464,-0.010479000397026539
2021-01-14 15:05:01.409,-0.12557726733538568,-0.8597401210239954,-0.2970855333367172,-0.1764875203371048,-0.130772203207016,0.04467624053359032,0.8310329914093018,0.5560749769210815,0.007557999808341265,-0.010328000411391258
2021-01-14 15:05:01.419,-0.11800354840804118,-0.8729330374270069,-0.2892674961868597,-0.18565049767494202,-0.14726556837558746,0.019630765542387962,0.8312240242958069,0.5558130145072937,0.006082000210881233,-0.010026000440120697
2021-01-14 15:05:01.429,-0.10896393230983188,-0.8932110728049765,-0.31174435907480663,-0.18442876636981964,-0.1503198891878128,-5.277875461615622E-4,0.8313140273094177,0.5557029843330383,0.004211000166833401,-0.009569000452756882
2021-01-14 15:05:01.439,-0.0918619730034653,-0.9108016928847954,-0.2882902232968077,-0.15938329696655273,-0.13199391961097717,-0.0060255746357142925,0.8312579989433289,0.5558099746704102,0.0020439999643713236,-0.008942999877035618
2021-01-14 15:05:01.449,-0.07671451690245647,-0.9318126950945173,-0.2658133604088608,-0.11723358929157257,-0.1155005618929863,0.00985692162066698,0.8310620188713074,0.5561169981956482,-2.6599998818710446E-4,-0.008198999799787998
2021-01-14 15:05:01.459,-0.05692510580529971,-0.9711471869021046,-0.25164317111579737,-0.06836437433958054,-0.09900721162557602,0.033680666238069534,0.8306360244750977,0.5567610263824463,-0.0025909999385476112,-0.007265999913215637
2021-01-14 15:05:01.469,-0.04128902542347811,-0.9933797680601781,-0.2382058999976333,-0.034155916422605515,-0.0800703838467598,0.059947870671749115,0.8299199938774109,0.5578250288963318,-0.004914000164717436,-0.006283999886363745
2021-01-14 15:05:01.479,-0.03371529737297369,-0.9953342165265764,-0.23674003931940818,-0.03843197599053383,-0.062355294823646545,0.09049113094806671,0.8289260268211365,0.5592859983444214,-0.0071299998089671135,-0.005319000221788883
2021-01-14 15:05:01.489,-0.02809608165098696,-0.9928910586298728,-0.24944434360582,-0.06958610564470291,-0.04708366096019745,0.12164526432752609,0.8277459740638733,0.561011016368866,-0.009131000377237797,-0.0042779999785125256
2021-01-14 15:05:01.499,-0.03053921826031743,-0.9809197211752132,-0.2584839597040293,-0.0750838965177536,0.021944113075733185,0.2077772617340088,0.8252390027046204,0.5646399855613708,-0.012556999921798706,-0.0021250001154839993
2021-01-14 15:05:01.509,-0.03933451613601373,-0.9699256079537527,-0.26337022684058364,-0.0750838965177536,0.021944113075733185,0.2077772617340088,0.8252390027046204,0.5646399855613708,-0.012556999921798706,-0.0021250001154839993
2021-01-14 15:05:01.519,-0.050328632398527494,-0.960397331082091,-0.2592169022073551,-0.06408831477165222,0.03477228060364723,0.23037926852703094,0.8239730000495911,0.5664560198783875,-0.013919999822974205,-9.030000073835254E-4
2021-01-14 15:05:01.529,-0.05594785116156753,-0.9528235999905332,-0.2504215921674456,-0.0653100460767746,0.03843747451901436,0.24442917108535767,0.8227459788322449,0.5682039856910706,-0.015205999836325645,2.589999930933118E-4
2021-01-14 15:05:01.539,-0.05521490865824173,-0.9459828357307277,-0.24651257359251683,-0.07813821732997894,0.03782660514116287,0.25603562593460083,0.8215789794921875,0.5698540210723877,-0.01646599918603897,0.0013859999598935246
2021-01-14 15:05:01.549,-0.04299922257053609,-0.9635734558105468,-0.23331963286107898,-0.09646417200565338,0.04149179905653,0.25542473793029785,0.8204730153083801,0.5714049935340881,-0.017727000638842583,0.0024939998984336853
2021-01-14 15:05:01.559,-0.03469255201670588,-0.9774993390453104,-0.22134827107799296,-0.10868147760629654,0.059206895530223846,0.25114870071411133,0.8204879760742188,0.5713499784469604,-0.01860800012946129,0.003355999942868948
2021-01-14 15:05:01.569,-0.024675688877397652,-0.9652836468754982,-0.2154847310513866,-0.12212051451206207,0.08119804412126541,0.2480943650007248,0.8205100297927856,0.5712869763374329,-0.019372999668121338,0.004269000142812729
2021-01-14 15:05:01.579,-0.005374902821317011,-0.9464714478473273,-0.2154847310513866,-0.12273138016462326,0.09463708102703094,0.24442917108535767,0.8205299973487854,0.5712289810180664,-0.020003000274300575,0.005243999883532524
2021-01-14 15:05:01.589,0.008550981173709947,-0.9279036035343091,-0.19789414746420722,-0.06347744911909103,0.09891313314437866,0.21388590335845947,0.8204280138015747,0.5713189840316772,-0.02092899940907955,0.007205000147223473
2021-01-14 15:05:01.599,0.012704314930098397,-0.9186196813778,-0.182502379222792,-0.06347744911909103,0.09891313314437866,0.21388590335845947,0.8204280138015747,0.5713189840316772,-0.02092899940907955,0.007205000147223473
2021-01-14 15:05:01.609,0.015147453059955518,-0.9193526482095523,-0.1741957056279085,-0.02316034585237503,0.07386766374111176,0.19617082178592682,0.8201760053634644,0.5716599822044373,-0.021226000040769577,0.008076000027358532
2021-01-14 15:05:01.619,0.012215687608232302,-0.9222844182228555,-0.15978119811233207,0.013491569086909294,0.012170268222689629,0.166849285364151,0.8197600245475769,0.5722339749336243,-0.021554000675678253,0.008727000094950199
2021-01-14 15:05:01.629,-0.0073294128690447125,-0.9103130807681958,-0.15196316096247459,0.02937406487762928,-0.027535973116755486,0.15341024100780487,0.8191850185394287,0.5730339884757996,-0.02199600078165531,0.009053000248968601
2021-01-14 15:05:01.639,-0.036891376485629956,-0.9049381528581891,-0.1399917870151753,0.0360935814678669,-0.05807923525571823,0.13936035335063934,0.8185039758682251,0.5739849805831909,-0.022537000477313995,0.009150000289082527
2021-01-14 15:05:01.649,-0.07133961940298275,-0.90396092862499,-0.1321737377011046,0.036704447120428085,-0.07579432427883148,0.12347786128520966,0.8177490234375,0.5750370025634766,-0.023130999878048897,0.009105999954044819
2021-01-14 15:05:01.659,-0.1087196262515321,-0.9046937981430364,-0.12728747056455028,0.027541469782590866,-0.08129211515188217,0.10515189915895462,0.8169370293617249,0.5761669874191284,-0.023732999339699745,0.009011000394821167
2021-01-14 15:05:01.669,-0.14414511164840385,-0.8993189675467355,-0.1324180559236176,0.00860464759171009,-0.07273999601602554,0.08193901926279068,0.8161010146141052,0.5773259997367859,-0.024358000606298447,0.00887299980968237
2021-01-14 15:05:01.679,-0.16808785954300237,-0.8951656185850805,-0.14414511164840385,-0.013997365720570087,-0.04158587381243706,0.05506095290184021,0.8152729868888855,0.5784710049629211,-0.024977000430226326,0.008737999945878983
2021-01-14 15:05:01.689,-0.1993600203066456,-0.8802625111171177,-0.14219060236093947,-0.036599379032850266,0.005450750235468149,0.030015474185347557,0.8137410283088684,0.5805820226669312,-0.02592799998819828,0.008778000250458717
2021-01-14 15:05:01.699,-0.21792786461966376,-0.8805067685185646,-0.13779295950519793,-0.054925337433815,0.12273687869310379,-0.027405859902501106,0.809503972530365,0.5863670110702515,-0.02786099910736084,0.009996999986469746
2021-01-14 15:05:01.709,-0.21475178854806082,-0.8641377273870974,-0.150497275955823,-0.054925337433815,0.12273687869310379,-0.027405859902501106,0.809503972530365,0.5863670110702515,-0.02786099910736084,0.009996999986469746
2021-01-14 15:05:01.719,-0.2069337513982033,-0.8546095478291413,-0.15391767024993896,-0.0701969712972641,0.17954735457897186,-0.06222517788410187,0.805670976638794,0.5914819836616516,-0.030097000300884247,0.011694000102579594
2021-01-14 15:05:01.729,-0.1998486567516716,-0.8499675867508868,-0.17101962955630554,-0.08119254559278488,0.22047531604766846,-0.09154670685529709,0.8023149967193604,0.5958600044250488,-0.03243999928236008,0.013667000457644463
2021-01-14 15:05:01.739,-0.16344589846474783,-0.8568083510106923,-0.20326903888157435,-0.08119254559278488,0.2528511881828308,-0.11537045240402222,0.7993900179862976,0.5995969772338867,-0.03475499898195267,0.015800999477505684
2021-01-14 15:05:01.749,-0.10529923195741614,-0.9002961917799346,-0.21841650106468977,-0.04942755028605461,0.2943900227546692,-0.16362881660461426,0.7950620055198669,0.6049780249595642,-0.0385579988360405,0.019752999767661095
2021-01-14 15:05:01.759,-0.06327726403061223,-0.9345001103926678,-0.23136513573782783,-0.04942755028605461,0.2943900227546692,-0.16362881660461426,0.7950620055198669,0.6049780249595642,-0.0385579988360405,0.019752999767661095
2021-01-14 15:05:01.769,-0.02345412057273242,-0.9733459900836554,-0.2584839597040293,-0.025603804737329483,0.3078290522098541,-0.16057448089122772,0.7937179803848267,0.6066489815711975,-0.039333999156951904,0.02098800055682659
2021-01-14 15:05:01.780,-0.017590589669285988,-0.9909366101634745,-0.2797392436436244,-0.034155916422605515,0.3029421269893646,-0.13736160099506378,0.7927970290184021,0.6078270077705383,-0.03939399868249893,0.021617000922560692
2021-01-14 15:05:01.790,-0.03933451613601373,-1.0534809073623346,-0.29488670582673987,-0.04576236009597778,0.2980552017688751,-0.09460103511810303,0.7928550243377686,0.607820987701416,-0.038350000977516174,0.0215000007301569
2021-01-14 15:05:01.800,-0.08697569978480436,-1.1126048224312917,-0.29561964833006565,-0.05859053134918213,0.25040772557258606,-0.053673066198825836,0.7929959893226624,0.6076970100402832,-0.03743699938058853,0.021412000060081482
2021-01-14 15:05:01.810,-0.15513923703407753,-1.209108780841438,-0.29855141834336885,-0.10012936592102051,0.22963829338550568,-0.03473624214529991,0.7931910157203674,0.6074849963188171,-0.03677999973297119,0.021345000714063644
2021-01-14 15:05:01.820,-0.19789414746420722,-1.2958402049784756,-0.28951180224515954,-0.15449637174606323,0.244299054145813,-0.03901229798793793,0.793516993522644,0.6070929765701294,-0.036270998418331146,0.021261999383568764
2021-01-14 15:05:01.830,-0.2252572896529217,-1.334197375239158,-0.26141572971733246,-0.20886337757110596,0.3053855895996094,-0.06650123745203018,0.7940049767494202,0.6064890027046204,-0.0357230007648468,0.021196000277996063
2021-01-14 15:05:01.840,-0.2225698256979183,-1.3256464199144011,-0.23356393891937877,-0.247347891330719,0.3664720952510834,-0.08971410989761353,0.7946490049362183,0.6056939959526062,-0.03486499935388565,0.02125299908220768
2021-01-14 15:05:01.850,-0.15391767024993896,-1.2782495848986566,-0.1763945331378859,-0.25528913736343384,0.38785240054130554,-0.08421632647514343,0.7960990071296692,0.6038960218429565,-0.03274700045585632,0.02150299958884716
2021-01-14 15:05:01.860,-0.08697569978480436,-1.246733081584074,-0.13412824698856898,-0.2418500930070877,0.3957936465740204,-0.0506187379360199,0.7967169880867004,0.6031259894371033,-0.031817998737096786,0.021630000323057175
2021-01-14 15:05:01.870,-0.030294906119911036,-1.2313413619995117,-0.1321737377011046,-0.25467827916145325,0.38357633352279663,0.0025265386793762445,0.7971979975700378,0.6025260090827942,-0.0309200007468462,0.021928999572992325
2021-01-14 15:05:01.880,0.008550981173709947,-1.233051553064463,-0.13192943164280482,-0.25467827916145325,0.38357633352279663,0.0025265386793762445,0.7971979975700378,0.6025260090827942,-0.0309200007468462,0.021928999572992325
2021-01-14 15:05:01.890,0.020033727799143107,-1.2574829374040875,-0.1426792388059655,-0.26567384600639343,0.3200463652610779,0.07827382534742355,0.7976239919662476,0.6019840240478516,-0.03014099970459938,0.022398000583052635
2021-01-14 15:05:01.900,0.0021988237086607485,-1.3222260377844985,-0.04202196488575059,-0.2326871156692505,0.21681012213230133,0.16379496455192566,0.7979810237884521,0.6015099883079529,-0.029736999422311783,0.022931000217795372
2021-01-14 15:05:01.910,-0.0249200025383307,-1.4133550682846379,0.06743059474594738,-0.1459442526102066,0.10502178221940994,0.24381831288337708,0.7981410026550293,0.6012709736824036,-0.029839999973773956,0.02349800057709217
2021-01-14 15:05:01.920,-0.02638588450392898,-1.5005751045382751,-0.2885345536835339,-0.08180340379476547,-0.039142414927482605,0.3183438777923584,0.7978230118751526,0.6016389727592468,-0.030511999502778053,0.02399599924683571
2021-01-14 15:05:01.930,0.12020236375380534,-1.4866492213035116,-0.7063110507264428,-0.2064199149608612,-0.1100027784705162,0.348276287317276,0.7969859838485718,0.6026650071144104,-0.03192000091075897,0.024244999513030052
2021-01-14 15:05:01.940,0.2382058999976333,-1.4250821483378506,-0.3992086770583172,-0.3127104938030243,-0.3170861005783081,0.41241711378097534,0.7966639995574951,0.6029919981956482,-0.033629000186920166,0.024382000789046288
2021-01-14 15:05:01.950,0.3237157208578927,-1.4001621518816265,-0.30246043691829755,0.018989356234669685,-0.5999166965484619,0.44784727692604065,0.7971159815788269,0.6022520065307617,-0.03628399968147278,0.024082999676465988
2021-01-14 15:05:01.960,0.21206434892148388,-1.2589487737538863,-0.3156533776497354,0.2541724741458893,-0.8021131157875061,0.3904259502887726,0.7965660095214844,0.6027969717979431,-0.03993299975991249,0.022864999249577522
2021-01-14 15:05:01.970,0.05277176900785796,-1.0461515309859295,-0.44587261822758884,0.2572267949581146,-0.9780423045158386,0.31712213158607483,0.7952380180358887,0.6043679714202881,-0.043706998229026794,0.02061700075864792
2021-01-14 15:05:01.980,0.0034203927735893093,-0.8609616999723473,-0.5440867190458336,0.25111815333366394,-0.9633815288543701,0.27680501341819763,0.7938960194587708,0.605929970741272,-0.0476749986410141,0.0174150001257658
2021-01-14 15:05:01.990,-0.03811294631082184,-0.7563953983540437,-0.6379032135009766,0.3079286217689514,-0.9322274327278137,0.22121629118919373,0.7927520275115967,0.6072009801864624,-0.051461998373270035,0.014208000153303146
2021-01-14 15:05:02.000,-0.01734627600835294,-0.664533401022152,-0.8365303156327227,0.3433587849140167,-0.9371142983436584,0.16807101666927338,0.7916880249977112,0.6083449721336365,-0.054997000843286514,0.010999999940395355
2021-01-14 15:05:02.010,0.008550981173709947,-0.6288635974027672,-0.7891334319601253,0.31037208437919617,-0.8583126664161682,0.157075434923172,0.7908350229263306,0.6091910004615784,-0.058361999690532684,0.007664999924600124
2021-01-14 15:05:02.020,0.021010982442875296,-0.7060667446681431,-0.7541965465156399,0.26577892899513245,-0.7868415117263794,0.18822957575321198,0.7906079888343811,0.6092360019683838,-0.06121499836444855,0.00469700014218688
2021-01-14 15:05:02.030,0.03176078808550932,-0.8003718512398855,-0.7102200936297981,0.014102434739470482,-0.7654612064361572,0.22121629118919373,0.7917789816856384,0.6071919798851013,-0.06635600328445435,-1.9799999427050352E-4
2021-01-14 15:05:02.040,0.03249373058883511,-0.8907679149082728,-0.7282993258262167,0.014102434739470482,-0.7654612064361572,0.22121629118919373,0.7917789816856384,0.6071919798851013,-0.06635600328445435,-1.9799999427050352E-4
2021-01-14 15:05:02.050,-0.04519804399840686,-0.9972887623066804,-0.6835899061086226,-0.21985894441604614,-0.7025420665740967,0.24015311896800995,0.7933109998703003,0.6049090027809143,-0.06881500035524368,-0.002469999948516488
2021-01-14 15:05:02.060,-0.1321737377011046,-1.1077186039515903,-0.6293522581762196,-0.3927338123321533,-0.6292382478713989,0.21022072434425354,0.7956399917602539,0.6015650033950806,-0.07109300047159195,-0.004596000071614981
2021-01-14 15:05:02.070,-0.23918317288768534,-1.1797910807084062,-0.6242216363245127,-0.3890686333179474,-0.6634467244148254,0.12286698818206787,0.7984579801559448,0.5975580215454102,-0.07310199737548828,-0.006655000150203705
2021-01-14 15:05:02.080,-0.29219924187173646,-1.105031091339734,-0.6046765677782954,-0.3432537317276001,-0.686659574508667,0.056893546134233475,0.8010990023612976,0.5937349796295166,-0.07509300112724304,-0.008942999877035618
2021-01-14 15:05:02.090,-0.29000043869018555,-0.9672381926556022,-0.5528820290857431,-0.2516239583492279,-0.6884921789169312,-0.025573262944817543,0.8034250140190125,0.5902699828147888,-0.07719799876213074,-0.01129200030118227
2021-01-14 15:05:02.100,-0.2728984550553925,-0.8963871975334322,-0.5052408393548459,-0.11845532059669495,-0.6078579425811768,-0.10865093022584915,0.8053560256958008,0.5873010158538818,-0.07931199669837952,-0.01370299980044365
2021-01-14 15:05:02.110,-0.24577963108919104,-0.8335985456194196,-0.47348007863881636,-0.024382077157497406,-0.3238056004047394,-0.25037166476249695,0.8080570101737976,0.5830519795417786,-0.08228900283575058,-0.01793700084090233
2021-01-14 15:05:02.120,-0.1641788409680736,-0.6469428295991858,-0.3987200406132912,-0.024382077157497406,-0.3238056004047394,-0.25037166476249695,0.8080570101737976,0.5830519795417786,-0.08228900283575058,-0.01793700084090233
2021-01-14 15:05:02.130,-0.13046354663615323,-0.6430337866958307,-0.4307251560444734,-0.036599379032850266,-0.19369131326675415,-0.30046260356903076,0.8092560172080994,0.581246018409729,-0.08288799971342087,-0.01966099999845028
2021-01-14 15:05:02.140,-0.08941883335308153,-0.6232444120913135,-0.35425495128242335,-0.0952424481511116,-0.05930096283555031,-0.32611894607543945,0.8105159997940063,0.5794320106506348,-0.08290400356054306,-0.021161999553442
2021-01-14 15:05:02.150,-0.03224941540737541,-0.5636318362489038,-0.30075022152491976,-0.04576236009597778,-0.07823778688907623,-0.3377254009246826,0.8120020031929016,0.5773940086364746,-0.08228400349617004,-0.022305000573396683
2021-01-14 15:05:02.160,0.018567845833544826,-0.5308938026428223,-0.26459180578893543,-0.03598851338028908,-0.05746836960315704,-0.3572731018066406,0.8132870197296143,0.5756189823150635,-0.08168900012969971,-0.023506000638008118
2021-01-14 15:05:02.170,0.06205569116436705,-0.5198996894213618,-0.24577963108919104,-0.03843197599053383,-0.01043174508959055,-0.37743163108825684,0.8144909739494324,0.5739790201187134,-0.0808660015463829,-0.024728000164031982
2021-01-14 15:05:02.180,0.10529923195741614,-0.5218541865446129,-0.2423592489592883,-0.03843197599053383,-0.0049339584074914455,-0.3988119065761566,0.8156480193138123,0.5724449753761292,-0.07967299968004227,-0.02597999945282936
2021-01-14 15:05:02.190,0.12582158555789869,-0.546774183000837,-0.2325866903577532,-0.027436401695013046,-0.03181202709674835,-0.43179863691329956,0.8167240023612976,0.5710340142250061,-0.07826700061559677,-0.02748199924826622
2021-01-14 15:05:02.200,0.14414511164840385,-0.5682737973271583,-0.2477341525408686,-0.0017800614004954696,-0.06357702612876892,-0.470283180475235,0.8176320195198059,0.5698519945144653,-0.0766960009932518,-0.029378000646829605
2021-01-14 15:05:02.210,0.15342903380491293,-0.6029663280564911,-0.26825649397713797,0.04403483122587204,-0.11733315885066986,-0.5344240069389343,0.8183240294456482,0.5689650177955627,-0.07496599853038788,-0.031683001667261124
2021-01-14 15:05:02.220,0.166133350255538,-0.6249546031562649,-0.2728984550553925,0.15887750685214996,-0.2114064246416092,-0.6358276605606079,0.8190479874610901,0.5680599808692932,-0.07094299793243408,-0.03786100074648857
2021-01-14 15:05:02.230,0.1734627631245827,-0.6442553656441824,-0.26459180578893543,0.15887750685214996,-0.2114064246416092,-0.6358276605606079,0.8190479874610901,0.5680599808692932,-0.07094299793243408,-0.03786100074648857
2021-01-14 15:05:02.240,0.18421257028774338,-0.6703969410487584,-0.26947807292548975,0.23523566126823425,-0.2822667956352234,-0.6816425323486328,0.8190330266952515,0.5680919885635376,-0.0686969980597496,-0.0416640006005764
2021-01-14 15:05:02.250,0.20620080889487752,-0.6796808632052674,-0.249932980050846,0.35740870237350464,-0.4698024094104767,-0.7115749716758728,0.8180450201034546,0.5693249702453613,-0.06426399946212769,-0.05039700120687485
2021-01-14 15:05:02.260,0.22647884427284706,-0.6813910542702187,-0.21866080712298955,0.39222803711891174,-0.5620430707931519,-0.6822534203529358,0.8171160221099854,0.5704290270805359,-0.062313999980688095,-0.05520499870181084
2021-01-14 15:05:02.270,0.22061532857466715,-0.6826126332185706,-0.20937688496648046,0.39222803711891174,-0.5620430707931519,-0.6822534203529358,0.8171160221099854,0.5704290270805359,-0.062313999980688095,-0.05520499870181084
2021-01-14 15:05:02.280,0.2083996364048549,-0.6838342121669224,-0.20815533034655512,0.38673022389411926,-0.6475642323493958,-0.6162799596786499,0.8159499764442444,0.5717660188674927,-0.06068199872970581,-0.060214001685380936
2021-01-14 15:05:02.290,0.18787728280437235,-0.7065554054415956,-0.19056473459516252,0.3745129406452179,-0.7935609817504883,-0.4305769205093384,0.8133879899978638,0.5744640231132507,-0.05880200117826462,-0.07022800296545029
2021-01-14 15:05:02.300,0.17810472420283724,-0.7239016708062619,-0.1910533588759753,0.398947536945343,-0.8491497039794922,-0.3297841548919678,0.811968982219696,0.575875997543335,-0.058701999485492706,-0.07500699907541275
2021-01-14 15:05:02.310,0.15636080381821613,-0.7214585129095583,-0.20058159925499738,0.450871080160141,-0.8717517852783203,-0.23326744139194489,0.8104209899902344,0.577426016330719,-0.059078000485897064,-0.07940799742937088
2021-01-14 15:05:02.320,0.10285608622492576,-0.7292765500594158,-0.21279729142480966,0.450871080160141,-0.8717517852783203,-0.23326744139194489,0.8104209899902344,0.577426016330719,-0.059078000485897064,-0.07940799742937088
2021-01-14 15:05:02.330,0.024431375216464605,-0.7600600865422462,-0.18714434030104654,0.609085202217102,-0.8803038597106934,-0.08116200566291809,0.8067929744720459,0.581233024597168,-0.060982998460531235,-0.08679399639368057
2021-01-14 15:05:02.340,-0.013681571094357237,-0.8235816566311582,-0.20278041460076154,0.6316872239112854,-0.9163448810577393,-0.01457768864929676,0.8046360015869141,0.583603024482727,-0.06258799880743027,-0.08971799910068512
2021-01-14 15:05:02.350,0.025408629860196794,-0.8370189277493223,-0.19496237745090406,0.5815962553024292,-0.9511642456054688,0.07399777323007584,0.8024280071258545,0.5859839916229248,-0.06504900008440018,-0.09218999743461609
2021-01-14 15:05:02.360,0.09210628514387169,-0.8897906906750737,-0.20864394246315468,0.5956461429595947,-0.9896487593650818,0.0758303701877594,0.8003600239753723,0.5880950093269348,-0.06820599734783173,-0.09442400187253952
2021-01-14 15:05:02.370,0.14316786308677829,-1.0803554495986627,-0.2648361118472352,0.6133612394332886,-1.010418176651001,0.06788912415504456,0.7982159852981567,0.5902569890022278,-0.07146699726581573,-0.09663499891757965
2021-01-14 15:05:02.380,0.16295727418393505,-1.2860675733916613,-0.2641031693439094,0.6078634858131409,-1.0641742944717407,0.05811527743935585,0.7959780097007751,0.5924839973449707,-0.07474499940872192,-0.09895999729633331
2021-01-14 15:05:02.390,0.12215687304126972,-1.3891680386601661,-0.2162176735547124,0.5553290247917175,-1.0879980325698853,0.051395758986473083,0.7936670184135437,0.5947120189666748,-0.07815899699926376,-0.10149099677801132
2021-01-14 15:05:02.400,-0.008795294834642994,-1.406025691908233,-0.18421257028774338,0.5553290247917175,-1.0879980325698853,0.051395758986473083,0.7936670184135437,0.5947120189666748,-0.07815899699926376,-0.10149099677801132
2021-01-14 15:05:02.410,-0.11775923018552818,-1.468569989107093,-0.18152511849695321,0.4960750937461853,-0.9792640209197998,0.030015474185347557,0.7914249897003174,0.5968120098114014,-0.08156300336122513,-0.10396300256252289
2021-01-14 15:05:02.420,-0.18787728280437235,-1.5782668639202506,-0.16246864990312224,0.43376684188842773,-0.8027240037918091,-0.048175279051065445,0.7893530130386353,0.5987629890441895,-0.08462099730968475,-0.10602899640798569
2021-01-14 15:05:02.430,-0.2159733674964126,-1.5855962402966557,-0.13486118949189477,0.37695640325546265,-0.6506185531616211,-0.15629842877388,0.7874919772148132,0.6005650162696838,-0.08697099983692169,-0.10776100307703018
2021-01-14 15:05:02.440,-0.24480238252756545,-1.4930013734467174,-0.1158047208980638,0.30670687556266785,-0.505843460559845,-0.2668650150299072,0.785785973072052,0.6022949814796448,-0.08850999921560287,-0.1092969998717308
2021-01-14 15:05:02.450,-0.25555218969072613,-1.3126978582265425,-0.06449883081475082,0.22118575870990753,-0.3024253249168396,-0.3291732668876648,0.7842180132865906,0.6039479970932007,-0.08930300176143646,-0.11078300327062607
2021-01-14 15:05:02.460,-0.20668944533990352,-1.1749048622287048,-0.01734627600835294,0.1723165214061737,-0.08312471210956573,-0.307792991399765,0.7828900218009949,0.6055120229721069,-0.08919399976730347,-0.11171700060367584
2021-01-14 15:05:02.470,-0.1070094230223675,-1.0617876052856445,0.018567845833544826,0.18025778234004974,0.10318918526172638,-0.24120868742465973,0.7817170023918152,0.6071360111236572,-0.08845599740743637,-0.1117120012640953
2021-01-14 15:05:02.480,-0.06767491296846039,-1.0879291806902203,0.03469255201670588,0.2480638325214386,0.2388012707233429,-0.15874187648296356,0.7805060148239136,0.609017014503479,-0.08741699904203415,-0.11074899882078171
2021-01-14 15:05:02.490,-0.3840612148752018,-1.1837001722686145,-0.8631605031538983,0.40688878297805786,0.34814614057540894,-0.09643363207578659,0.7790709733963013,0.6113499999046326,-0.08620399981737137,-0.10893800109624863
2021-01-14 15:05:02.500,-0.4167992728097098,-1.1683083553703464,-0.8763534195569096,0.3250328302383423,0.6071529984474182,-0.08849238604307175,0.7771310210227966,0.6144180297851562,-0.08488000184297562,-0.10654699802398682
2021-01-14 15:05:02.510,-0.5585012630540497,-1.3596060811256874,-0.6401020166825274,0.3555760979652405,0.6767916083335876,-0.29068878293037415,0.7762770056724548,0.616362988948822,-0.08245799690485,-0.10339199751615524
2021-01-14 15:05:02.520,-0.5194110286479093,-1.2242562430245534,-0.6681981378672074,0.702547550201416,1.116614580154419,-0.45195722579956055,0.7757220268249512,0.6179190278053284,-0.07946500182151794,-0.10057000070810318
2021-01-14 15:05:02.530,-0.35010160232076837,-0.97481192374716,-0.5851314505752252,0.6225242018699646,1.46969473361969,-0.6138364672660828,0.7744539976119995,0.6206910014152527,-0.07494600117206573,-0.09667199850082397
2021-01-14 15:05:02.540,-0.11091844159729626,-0.8050138123181401,-0.6041879070048429,0.5253966450691223,1.4318209886550903,-0.7366204261779785,0.7736930251121521,0.6230019927024841,-0.06888700276613235,-0.09231200069189072
2021-01-14 15:05:02.550,0.05692510580529971,-0.7444240122425312,-0.7126632028696488,0.379399836063385,1.3230869770050049,-0.8007612228393555,0.7733250260353088,0.6246489882469177,-0.06272300332784653,-0.08857899904251099
2021-01-14 15:05:02.560,0.1920306074376009,-0.8099000794546944,-0.6110287199215013,0.18575556576251984,1.2204617261886597,-0.8190872073173523,0.7735369801521301,0.6253799796104431,-0.0566600002348423,-0.08561400324106216
2021-01-14 15:05:02.570,0.22818905966622488,-0.9713915416172572,-0.578046331600267,0.06480425596237183,1.0964560508728027,-0.7641093134880066,0.7745630145072937,0.6249300241470337,-0.05063600093126297,-0.08336199820041656
2021-01-14 15:05:02.580,0.26166003577563224,-1.112360565029845,-0.6017447977649922,-0.07935994863510132,0.9871112108230591,-0.6706469655036926,0.7760599851608276,0.6237519979476929,-0.04481799900531769,-0.08157700300216675
2021-01-14 15:05:02.590,0.2970855333367172,-1.1951828976066745,-0.618602451013059,-0.2510130703449249,0.9028117656707764,-0.5753520131111145,0.7779719829559326,0.6218940019607544,-0.039459001272916794,-0.08030600100755692
2021-01-14 15:05:02.600,0.3229827783545669,-1.2232790187913543,-0.5668079123205068,-0.3279821276664734,0.8246210217475891,-0.4592875838279724,0.7803379893302917,0.6193429827690125,-0.03442699834704399,-0.07937599718570709
2021-01-14 15:05:02.610,0.31272160763643225,-1.1468087410440249,-0.499865960101692,-0.2986605763435364,0.7213848233222961,-0.34505578875541687,0.7828559875488281,0.6165090203285217,-0.02974800020456314,-0.07853200286626816
2021-01-14 15:05:02.620,0.2824267075986278,-1.0512821041807836,-0.4522247703707948,-0.22596760094165802,0.5979900360107422,-0.2118871659040451,0.785152018070221,0.6138520240783691,-0.025648999959230423,-0.07786499708890915
2021-01-14 15:05:02.630,0.22794472927949866,-0.9618632647455955,-0.41215731173145526,-0.197256937623024,0.444662868976593,-0.08543805778026581,0.7871170043945312,0.6115490198135376,-0.02223999984562397,-0.07718700170516968
2021-01-14 15:05:02.640,0.1426792388059655,-0.9122675292345942,-0.380152196300273,-0.18992656469345093,0.3292093276977539,0.03795672208070755,0.7889080047607422,0.6094020009040833,-0.019662000238895416,-0.07659000158309937
2021-01-14 15:05:02.650,0.049351377754795304,-0.8636491152704978,-0.36036279736732946,-0.19298088550567627,0.2534620463848114,0.1521885246038437,0.7906140089035034,0.6073279976844788,-0.01780400052666664,-0.07591400295495987
2021-01-14 15:05:02.660,-0.03151647594510292,-0.7901107048501773,-0.35156748732741994,-0.19298088550567627,0.16183225810527802,0.28047022223472595,0.7922809720039368,0.6052989959716797,-0.016581999137997627,-0.07502400130033493
2021-01-14 15:05:02.670,-0.12288981554459552,-0.6361930224360252,-0.31589768370803517,-0.1819853037595749,0.09402621537446976,0.33056119084358215,0.7938989996910095,0.6033239960670471,-0.01623300090432167,-0.07388400286436081
2021-01-14 15:05:02.680,-0.13144079519777882,-0.5843984837434729,-0.26141572971733246,-0.15693983435630798,0.025609305128455162,0.3433893322944641,0.7954139709472656,0.6014779806137085,-0.016447000205516815,-0.07259300351142883
2021-01-14 15:05:02.690,-0.1172706059047154,-0.5658306394304548,-0.2311208053511016,-0.15205292403697968,-0.0342554897069931,0.3336155116558075,0.7968279719352722,0.5997300148010254,-0.017223000526428223,-0.07134799659252167
2021-01-14 15:05:02.700,-0.11165138410062206,-0.5506832259041922,-0.20595650283657774,-0.15755070745944977,-0.05013798549771309,0.3226199448108673,0.7981699705123901,0.598039984703064,-0.018431000411510468,-0.07022599875926971
2021-01-14 15:05:02.710,-0.10627648051904172,-0.5433538008709343,-0.20278041460076154,-0.18931569159030914,-0.03303375840187073,0.3501088619232178,0.7994629740715027,0.596405029296875,-0.019781000912189484,-0.06904300302267075
2021-01-14 15:05:02.720,-0.11995805769550556,-0.5450639919358856,-0.1998486567516716,-0.21985894441604614,0.04332439601421356,0.3953129053115845,0.8007799983024597,0.5947449803352356,-0.021276000887155533,-0.06764400005340576
2021-01-14 15:05:02.730,-0.14292354486426528,-0.5431094948126345,-0.2064451149531773,-0.23574145138263702,0.1074652448296547,0.43624088168144226,0.8021479845046997,0.5930650234222412,-0.02264999970793724,-0.06571699678897858
2021-01-14 15:05:02.740,-0.1583153131056805,-0.5387118397926798,-0.21035413352810606,-0.23757405579090118,0.16366486251354218,0.4741145074367523,0.8035299777984619,0.591401994228363,-0.023958999663591385,-0.0633080005645752
2021-01-14 15:05:02.750,-0.16955374454965397,-0.5492173408975406,-0.21230865497978366,-0.23085452616214752,0.21925358474254608,0.5083229541778564,0.8049049973487854,0.5897629857063293,-0.025348000228405,-0.060527000576257706
2021-01-14 15:05:02.760,-0.1749286481312343,-0.5819553745036222,-0.21841650106468977,-0.21313942968845367,0.28705963492393494,0.5364227890968323,0.8062689900398254,0.58815997838974,-0.026771999895572662,-0.05726499855518341
2021-01-14 15:05:02.770,-0.17199689028214435,-0.6230000573761608,-0.21524042499308682,-0.18442876636981964,0.37196990847587585,0.5565813183784485,0.8075820207595825,0.5866379737854004,-0.02823299914598465,-0.053564999252557755
2021-01-14 15:05:02.780,-0.16930943849135416,-0.6510961785608408,-0.21108707603143184,-0.11662272363901138,0.5332383513450623,0.5767398476600647,0.808791995048523,0.5852640271186829,-0.029628999531269073,-0.049431998282670975
2021-01-14 15:05:02.790,-0.16955374454965397,-0.6721071321137096,-0.18641139779772076,-0.05859053134918213,0.6468592286109924,0.5785724520683289,0.8097500205039978,0.5842729806900024,-0.030542999505996704,-0.04468100145459175
2021-01-14 15:05:02.800,-0.18641139779772076,-0.7099757875714983,-0.15196316096247459,0.02326541393995285,0.7378782033920288,0.5639116764068604,0.8104619979858398,0.5836229920387268,-0.031098999083042145,-0.03958500176668167
2021-01-14 15:05:02.810,-0.20815533034655512,-0.763480468672149,-0.12679883411952428,0.10756482183933258,0.7995755672454834,0.522983729839325,0.8108270168304443,0.5834400057792664,-0.03131600096821785,-0.034272000193595886
2021-01-14 15:05:02.820,-0.22354709858797034,-0.8233373992297114,-0.12166824876045693,0.17537087202072144,0.8172906637191772,0.4557885527610779,0.8107920289039612,0.5837839841842651,-0.031240999698638916,-0.028913000598549843
2021-01-14 15:05:02.830,-0.2404047275076107,-0.8648706942188495,-0.1761502149153729,0.20163805782794952,0.8050733804702759,0.36049357056617737,0.810371994972229,0.5846139788627625,-0.030967000871896744,-0.023718999698758125
2021-01-14 15:05:02.840,-0.26337022684058364,-0.871711458478655,-0.19276354994092668,0.2120227813720703,0.8007972836494446,0.24931609630584717,0.8096929788589478,0.585748016834259,-0.030570000410079956,-0.018976999446749687
2021-01-14 15:05:02.850,-0.31540904726300917,-0.8900350453902264,-0.17101962955630554,0.2743310332298279,0.8191232085227966,0.14058206975460052,0.808892011642456,0.5870040059089661,-0.030011000111699104,-0.014804000034928322
2021-01-14 15:05:02.860,-0.35010160232076837,-0.940363650419274,-0.1426792388059655,0.38123244047164917,0.9034226536750793,0.04711970314383507,0.8078640103340149,0.5885419845581055,-0.029184000566601753,-0.011030999943614006
2021-01-14 15:05:02.870,-0.37453298666039286,-1.031004068802814,-0.12728747056455028,0.4667535722255707,1.0646910667419434,-0.03779057040810585,0.8064759969711304,0.5905600190162659,-0.027929000556468964,-0.007346999831497669
2021-01-14 15:05:02.880,-0.3227384722962671,-1.1194455866910973,-0.19569531995422984,0.46858617663383484,1.2656657695770264,-0.10742920637130737,0.8047729730606079,0.5930050015449524,-0.02593499980866909,-0.0034340000711381435
2021-01-14 15:05:02.890,-0.1426792388059655,-1.1636663942920917,-0.21646197961301217,0.3641282320022583,1.4367079734802246,-0.14041592180728912,0.8029839992523193,0.5955550074577332,-0.022974999621510506,9.720000089146197E-4
2021-01-14 15:05:02.900,0.02247686592900023,-1.1157809471597475,-0.20155884781662298,0.23034872114658356,1.5210074186325073,-0.13858333230018616,0.801485002040863,0.597678005695343,-0.019207000732421875,0.005741999950259924
2021-01-14 15:05:02.910,0.13021922841364023,-1.113337789263044,-0.1407247173542879,0.2126336395740509,1.5124553442001343,-0.08910325169563293,0.8003630042076111,0.5992370247840881,-0.014903999865055084,0.01051000040024519
2021-01-14 15:05:02.921,0.2487114011024942,-1.1275080272129603,-0.07133961940298275,0.2541724741458893,1.39700186252594,0.011689516715705395,0.7992619872093201,0.6007009744644165,-0.01043500006198883,0.01511400006711483
2021-01-14 15:05:02.931,0.4290149649795221,-1.1844330417866609,-0.06449883081475082,0.3042634129524231,1.130664587020874,0.22365975379943848,0.7980139851570129,0.6022970080375671,-0.006262000184506178,0.019269000738859177
2021-01-14 15:05:02.941,0.5538593019757951,-1.222546051959602,-0.05081725972039359,0.28166142106056213,0.9370202422142029,0.4038649797439575,0.7965850234031677,0.604079008102417,-0.0033259999472647905,0.022987000644207
2021-01-14 15:05:02.951,0.5313824147594218,-1.216438157217843,-0.0102611775605046,0.23157046735286713,0.6682395339012146,0.5736855268478394,0.7951020002365112,0.6058970093727112,-0.0012120000319555402,0.02644200064241886
2021-01-14 15:05:02.961,0.4402533842592823,-1.2044668197631836,0.0166133350255538,0.16498614847660065,0.35853084921836853,0.6689805388450623,0.7935119867324829,0.6078550219535828,4.999999873689376E-6,0.02913999930024147
2021-01-14 15:05:02.971,0.2677678818605384,-1.1675754858522998,0.035181179338571976,0.10878654569387436,0.08608496189117432,0.6610392332077026,0.79203200340271,0.6097000241279602,1.6700000560376793E-4,0.030813999474048615
2021-01-14 15:05:02.981,0.05326039937077736,-1.1101616645345882,0.10334472266995176,0.1167277991771698,-0.1155005618929863,0.5468074679374695,0.7906399965286255,0.6114749908447266,-4.2699999175965786E-4,0.03137199953198433
2021-01-14 15:05:02.991,0.07842471404951445,-1.200802082918128,-0.31980670228296393,0.2077467143535614,-0.2657734155654907,0.3879825174808502,0.7891550064086914,0.6134179830551147,-0.00139999995008111,0.03080900013446808
2021-01-14 15:05:03.001,0.265080417905535,-1.2276766251544562,-0.9574655610687878,0.32625457644462585,-0.37145310640335083,0.2633659839630127,0.7872769832611084,0.6158930063247681,-0.0025690000038594007,0.029380999505519867
2021-01-14 15:05:03.011,0.5164792586346062,-1.4221503783245475,-0.8553424173471879,0.08496280759572983,-0.3690096437931061,0.2981852889060974,0.7853050231933594,0.6184899806976318,-0.003797000041231513,0.02739799953997135
2021-01-14 15:05:03.021,0.7309867411243671,-1.4866492213035116,-0.6046765677782954,0.4453732967376709,-1.5736358165740967,0.6530980467796326,0.7843819856643677,0.6198030114173889,-0.009123999625444412,0.022456999868154526
2021-01-14 15:05:03.031,0.6525620635674924,-1.4082244950897838,-0.594659678790034,0.4453732967376709,-1.5736358165740967,0.6530980467796326,0.7843819856643677,0.6198030114173889,-0.009123999625444412,0.022456999868154526
2021-01-14 15:05:03.041,0.360851409483929,-1.2061770108281349,-0.7632361626138492,0.5864831805229187,-1.7214653491973877,0.8180316090583801,0.7832800149917603,0.6212210059165955,-0.015320000238716602,0.01794400066137314
2021-01-14 15:05:03.051,0.1070094230223675,-0.9882490975516183,-0.6073639830764459,0.43254512548446655,-1.3402854204177856,1.0617668628692627,0.7818170189857483,0.6229640245437622,-0.02231599949300289,0.013383000157773495
2021-01-14 15:05:03.061,-0.13534982593692077,-0.9391420714709223,-0.5394447579675791,0.379399836063385,-1.267592430114746,1.1845507621765137,0.7810969948768616,0.6236600279808044,-0.02851100079715252,0.010979999788105488
2021-01-14 15:05:03.071,-0.30123885796994576,-1.0097487118779396,-0.5885518327051279,0.26150286197662354,-1.1826821565628052,1.1643922328948975,0.7806969881057739,0.6238629817962646,-0.03487899899482727,0.009429999627172947
2021-01-14 15:05:03.081,-0.41753219098460914,-1.1167581713929466,-0.6376589074426767,-0.005445253103971481,-0.9621598124504089,1.1118577718734741,0.7807700037956238,0.6234049797058105,-0.041154999285936356,0.008310000412166119
2021-01-14 15:05:03.091,-0.5042636151216467,-1.2469774362992265,-0.5858643687501245,-0.30965617299079895,-0.7972261905670166,1.0232822895050049,0.7817919850349426,0.6217290163040161,-0.04676099866628647,0.008113999851047993
2021-01-14 15:05:03.101,-0.5846428384586256,-1.401872342946578,-0.5494616469558404,-0.4935265779495239,-0.7092615962028503,0.8375793695449829,0.7838299870491028,0.618740975856781,-0.05193300172686577,0.008476999588310719
2021-01-14 15:05:03.111,-0.6041879070048429,-1.4165311930130937,-0.5504388711890396,-0.5753825306892395,-0.6322925686836243,0.609115719795227,0.7863739728927612,0.6150820255279541,-0.05667399987578392,0.0087909996509552
2021-01-14 15:05:03.121,-0.5631432241323042,-1.3371291452524612,-0.5211212197128607,-0.5784368515014648,-0.5675408244132996,0.4038649797439575,0.7890260219573975,0.6112750172615051,-0.06082800030708313,0.008906999602913857
2021-01-14 15:05:03.131,-0.45393496143574613,-1.1534052479023835,-0.4231514249529157,-0.5362871885299683,-0.4533090591430664,0.2065555304288864,0.7914909720420837,0.6077060103416443,-0.06447599828243256,0.008733999915421009
2021-01-14 15:05:03.141,-0.33886318304100815,-1.0173224429694974,-0.3992086770583172,-0.4587072730064392,-0.29876014590263367,0.0025265386793762445,0.7937340140342712,0.6044719815254211,-0.06728500127792358,0.008422000333666801
2021-01-14 15:05:03.151,-0.23356393891937877,-0.9301025040295658,-0.3523004298307458,-0.4092271625995636,-0.16253718733787537,-0.18989601731300354,0.7956920266151428,0.6017069816589355,-0.06897299736738205,0.00800899975001812
2021-01-14 15:05:03.161,-0.1395031505701493,-0.8404393098792251,-0.3234714147995929,-0.34997323155403137,-0.07884865254163742,-0.35605135560035706,0.7974900007247925,0.599249005317688,-0.06968600302934647,0.00725799985229969
2021-01-14 15:05:03.171,-0.03713569166708965,-0.7229243979162099,-0.2799835740303506,-0.32004085183143616,-0.016540396958589554,-0.4861656427383423,0.7990689873695374,0.5971680283546448,-0.0695749968290329,0.006105000153183937
2021-01-14 15:05:03.181,0.0102611775605046,-0.6129832170447524,-0.2592169022073551,-0.3120996057987213,0.0262201689183712,-0.5814606547355652,0.8005120158195496,0.5953390002250671,-0.06878100335597992,0.004542999900877476
2021-01-14 15:05:03.191,0.06498746117767022,-0.47592318787866705,-0.22818905966622488,-0.31576481461524963,0.04088093712925911,-0.6382710933685303,0.8018730282783508,0.5936700105667114,-0.06743600219488144,0.0025730000343173742
2021-01-14 15:05:03.202,0.1155604026755508,-0.44782711535084,-0.2225698256979183,-0.36035796999931335,0.015835460275411606,-0.7066879868507385,0.803197979927063,0.5920789837837219,-0.0656760036945343,4.039999912492931E-4
2021-01-14 15:05:03.212,0.1588039373864933,-0.4180208517580616,-0.19764982924169422,-0.41655755043029785,0.02316584251821041,-0.7543355226516724,0.8046140074729919,0.5903630256652832,-0.06372500211000443,-0.0022750000935047865
2021-01-14 15:05:03.222,0.182502379222792,-0.41215731173145526,-0.18567845529439497,-0.4141141176223755,0.007894211448729038,-0.806259036064148,0.8061659932136536,0.5884640216827393,-0.061455000191926956,-0.005245000123977661
2021-01-14 15:05:03.232,0.19349649244425246,-0.42412869784296775,-0.18885453136599792,-0.418390154838562,-0.026925107464194298,-0.8539065718650818,0.8076769709587097,0.5866079926490784,-0.05892999842762947,-0.008577000349760056
2021-01-14 15:05:03.242,0.2074223878432293,-0.451980464312495,-0.18836590708518514,-0.4348835051059723,-0.04708366096019745,-0.882617175579071,0.8091809749603271,0.584729015827179,-0.056237999349832535,-0.012369999662041664
2021-01-14 15:05:03.252,0.20473492388822592,-0.5064624183031977,-0.22159257713629274,-0.4580964148044586,-0.05074885115027428,-0.8875041604042053,0.8107410073280334,0.5827479958534241,-0.05322499945759773,-0.016439000144600868
2021-01-14 15:05:03.262,0.20033728103248438,-0.5536149472606425,-0.23600709681608237,-0.4733680486679077,-0.04158587381243706,-0.874675989151001,0.8123670220375061,0.5806350111961365,-0.0498879998922348,-0.020806999877095222
2021-01-14 15:05:03.272,0.1570937463215419,-0.5924608756084832,-0.2320980782411536,-0.46298331022262573,-0.04402933642268181,-0.8374131321907043,0.8140360116958618,0.578419029712677,-0.046181000769138336,-0.025348000228405
2021-01-14 15:05:03.282,0.1426792388059655,-0.6283749852861676,-0.23478551786773058,-0.42633143067359924,-0.07212913781404495,-0.7793809771537781,0.8156229853630066,0.5762609839439392,-0.04231800138950348,-0.029830999672412872
2021-01-14 15:05:03.292,0.13583845021773358,-0.6425451745792311,-0.2318537478544274,-0.3279821276664734,-0.19369131326675415,-0.6724795699119568,0.8170120120048523,0.5742989778518677,-0.038724999874830246,-0.03422499820590019
2021-01-14 15:05:03.302,0.146832563439194,-0.6564710578139947,-0.21841650106468977,-0.22596760094165802,-0.3121991753578186,-0.6065061092376709,0.8180220127105713,0.5727689862251282,-0.035948000848293304,-0.03850099816918373
2021-01-14 15:05:03.312,0.1832353217261178,-0.6860330153484733,-0.1749286481312343,-0.09646417200565338,-0.414824515581131,-0.5380892157554626,0.8186460137367249,0.5716930031776428,-0.033907998353242874,-0.042837001383304596
2021-01-14 15:05:03.322,0.2428478854043143,-0.7226800918579102,-0.14487805415172966,0.025098009034991264,-0.5174499154090881,-0.45806586742401123,0.818805992603302,0.571196973323822,-0.032558001577854156,-0.04721599817276001
2021-01-14 15:05:03.332,0.30441493404154873,-0.775940466900261,-0.11287295088476064,0.10878654569387436,-0.6426772475242615,-0.37071213126182556,0.8184859752655029,0.5713279843330383,-0.03178999945521355,-0.051513999700546265
2021-01-14 15:05:03.342,0.3564537787924007,-0.82162720816476,-0.08135647798071102,0.16071009635925293,-0.7398048639297485,-0.28396928310394287,0.8177649974822998,0.5719630122184753,-0.03162600100040436,-0.05583300068974495
2021-01-14 15:05:03.352,0.38650437277190536,-0.8829499264152681,-0.08941883335308153,0.1729273945093155,-0.8088326454162598,-0.19661551713943481,0.8167120218276978,0.5730170011520386,-0.031877998262643814,-0.06013299897313118
2021-01-14 15:05:03.362,0.38528279382355357,-0.9301025040295658,-0.11995805769550556,0.1362754851579666,-0.8534258008003235,-0.10742920637130737,0.8154339790344238,0.5743520259857178,-0.03237399831414223,-0.06431999802589417
2021-01-14 15:05:03.373,0.35425495128242335,-0.9481816389122787,-0.11800354840804118,0.0965692475438118,-0.9047384858131409,-0.01763201504945755,0.814113974571228,0.575721025466919,-0.03306199982762337,-0.06833600252866745
2021-01-14 15:05:03.383,0.29317651476178846,-1.0178111523998026,-0.13486118949189477,0.09779097139835358,-0.9780423045158386,0.06911084800958633,0.8128209710121155,0.5770170092582703,-0.03406500071287155,-0.07218600064516068
2021-01-14 15:05:03.393,0.1893431556468107,-1.1551154389673348,-0.146832563439194,0.09046059101819992,-1.0690611600875854,0.13874948024749756,0.811456024646759,0.5783659815788269,-0.03558700159192085,-0.07592500001192093
2021-01-14 15:05:03.403,0.07036235867714395,-1.2821585791451588,-0.2538419986257748,0.08740626275539398,-1.2046732902526855,0.18639697134494781,0.8086519837379456,0.5809990167617798,-0.04053400084376335,-0.08292700350284576
2021-01-14 15:05:03.413,-0.08844157870934934,-1.312209148796237,-0.18812158886267213,0.13322116434574127,-1.1985646486282349,0.16074062883853912,0.8072760105133057,0.5821830034255981,-0.043963998556137085,-0.08622299879789352
2021-01-14 15:05:03.423,-0.2408933639526367,-1.3889236839450134,-0.1426792388059655,0.2834940254688263,-1.0776132345199585,0.11553660780191422,0.8057649731636047,0.583541989326477,-0.0477139987051487,-0.08912499994039536
2021-01-14 15:05:03.433,-0.3566980848507005,-1.4636836733136858,-0.16100276489647067,0.2834940254688263,-1.0776132345199585,0.11553660780191422,0.8057649731636047,0.583541989326477,-0.0477139987051487,-0.08912499994039536
2021-01-14 15:05:03.443,-0.38528279382355357,-1.4272809515194016,-0.08966314549348792,0.337861031293869,-0.6567271947860718,-0.03290364518761635,0.8037959933280945,0.5855759978294373,-0.05148899927735329,-0.09143500030040741
2021-01-14 15:05:03.453,-0.3156533776497354,-1.313430727744589,-0.006840785547178619,0.3677934408187866,-0.554101824760437,-0.16790486872196198,0.8017709851264954,0.5879619717597961,-0.053693998605012894,-0.09263099730014801
2021-01-14 15:05:03.463,-0.21646197961301217,-1.204955431879783,0.025164316199263747,0.36718255281448364,-0.5003456473350525,-0.259534627199173,0.7995610237121582,0.5906339883804321,-0.055525001138448715,-0.09363999962806702
2021-01-14 15:05:03.473,-0.15171884273996158,-1.2325629409478633,-0.040067455598286214,0.38245415687561035,-0.3170861005783081,-0.266254186630249,0.7972450256347656,0.5934240221977234,-0.05724199861288071,-0.09471499919891357
2021-01-14 15:05:03.483,-0.5668079123205068,-1.2105746171912368,-1.4028495671797772,0.43804290890693665,-0.08190297335386276,-0.22593705356121063,0.7948499917984009,0.5964360237121582,-0.058410998433828354,-0.09520799666643143
2021-01-14 15:05:03.493,-0.5025533753998426,-1.2494205941959302,-0.8827055717001155,0.10206703096628189,0.25101858377456665,-0.21982841193675995,0.7923640012741089,0.5997599959373474,-0.05883900076150894,-0.09478799998760223
2021-01-14 15:05:03.503,-0.6535392878006915,-1.465393864378637,-0.6181137902396066,0.39161714911460876,0.33776143193244934,-0.43607470393180847,0.7920420169830322,0.600488007068634,-0.058097001165151596,-0.09330800175666809
2021-01-14 15:05:03.513,-0.5286949508044184,-1.463195061197086,-0.48594007686692836,0.8583181500434875,0.9425180554389954,-0.5955105423927307,0.7912399768829346,0.6018649935722351,-0.056724999099969864,-0.09207800030708313
2021-01-14 15:05:03.523,-0.3180965112180126,-1.1512064447208326,-0.26654630291218656,0.7306473255157471,1.5656006336212158,-0.7689962983131409,0.7892959713935852,0.6051899790763855,-0.052962999790906906,-0.08916399627923965
2021-01-14 15:05:03.533,-0.0752486379779115,-0.8927224606883768,-0.31345455013975804,0.6231350898742676,1.6132479906082153,-0.8074807524681091,0.7878149747848511,0.6082469820976257,-0.04642900079488754,-0.08501199632883072
2021-01-14 15:05:03.543,0.1409690355768009,-0.7647020476205008,-0.553126335144043,0.5290618538856506,1.440373182296753,-0.9064409136772156,0.786549985408783,0.610925018787384,-0.0396369993686676,-0.08084999769926071
2021-01-14 15:05:03.553,0.18005923349030162,-0.7678781236921037,-0.6970271285699338,0.4392646551132202,1.2051900625228882,-0.9137712717056274,0.7854830026626587,0.6130849719047546,-0.03311600163578987,-0.07774999737739563
2021-01-14 15:05:03.563,0.2856027836702308,-0.8895464332736268,-0.7092428207397461,0.45148196816444397,0.9364093542098999,-0.9137712717056274,0.7848280072212219,0.6144539713859558,-0.027256999164819717,-0.07581000030040741
2021-01-14 15:05:03.573,0.39163494596675946,-1.0766907127536072,-0.6466985235408861,0.36718255281448364,0.8124037384986877,-0.8862823843955994,0.7843779921531677,0.615323007106781,-0.02217799983918667,-0.07506699860095978
2021-01-14 15:05:03.583,0.41093573278310347,-1.2596817405856384,-0.6708855531653579,0.011048109270632267,0.596768319606781,-0.7531137466430664,0.784371018409729,0.615477979183197,-0.0173530001193285,-0.07513699680566788
2021-01-14 15:05:03.593,0.38259532986855016,-1.4617292248472875,-0.664533401022152,-0.3017148971557617,0.528962254524231,-0.634605884552002,0.785506010055542,0.6140519976615906,-0.013201000168919563,-0.07579399645328522
2021-01-14 15:05:03.603,0.37086827414376394,-1.528915483124402,-0.5609443722939005,-0.3695209324359894,0.39823707938194275,-0.3529970347881317,0.7899249792098999,0.6083049774169922,-0.005528999958187342,-0.07714299857616425
2021-01-14 15:05:03.613,0.27925063152702484,-1.3669354575020924,-0.46786084467050976,-0.3695209324359894,0.39823707938194275,-0.3529970347881317,0.7899249792098999,0.6083049774169922,-0.005528999958187342,-0.07714299857616425
2021-01-14 15:05:03.623,0.1573380645440549,-1.1578028542654855,-0.4260831949662189,-0.26933905482292175,0.2876704931259155,-0.20272418856620789,0.791933000087738,0.6056699752807617,-0.00241199997253716,-0.07745599746704102
2021-01-14 15:05:03.633,0.044465104536134364,-1.0139020608395946,-0.38723731527523114,-0.19542434811592102,0.13128899037837982,-0.0860489159822464,0.7934330105781555,0.6037030220031738,-1.7100000695791095E-4,-0.07749900221824646
2021-01-14 15:05:03.643,-0.03811294631082184,-0.9066483439231405,-0.3759988716670445,-0.1416682004928589,0.03721574321389198,0.019019899889826775,0.7946140170097351,0.6021400094032288,0.0010019999463111162,-0.0775500014424324
2021-01-14 15:05:03.653,-0.08526550263774638,-0.795729890161631,-0.34643691413256583,-0.12761829793453217,0.010948537848889828,0.09537805616855621,0.7956010103225708,0.600866973400116,0.0014530000044032931,-0.0772939994931221
2021-01-14 15:05:03.663,-0.13534982593692077,-0.6164035991746551,-0.297818475840043,-0.13189436495304108,-0.062355294823646545,0.1564645916223526,0.7975000143051147,0.5984950065612793,9.86000057309866E-4,-0.07613100111484528
2021-01-14 15:05:03.673,-0.15660512204072913,-0.5345584908310248,-0.22867767178282444,-0.13189436495304108,-0.062355294823646545,0.1564645916223526,0.7975000143051147,0.5984950065612793,9.86000057309866E-4,-0.07613100111484528
2021-01-14 15:05:03.683,-0.11775923018552818,-0.5015761511666433,-0.2225698256979183,-0.1557181030511856,-0.0898442342877388,0.15829718112945557,0.7985119819641113,0.59722501039505,1.1600000289035961E-4,-0.07549899816513062
2021-01-14 15:05:03.693,-0.11458315411392522,-0.47690046076871906,-0.18543413707188197,-0.21069596707820892,-0.03547722101211548,0.20350120961666107,0.8008130192756653,0.594310998916626,-0.002400999888777733,-0.07406000047922134
2021-01-14 15:05:03.703,-0.11800354840804118,-0.47885495789197025,-0.1727298206212569,-0.22474588453769684,0.016446325927972794,0.2584790587425232,0.802111029624939,0.5926979780197144,-0.003783999942243099,-0.07287000119686127
2021-01-14 15:05:03.713,-0.11238432660394784,-0.48520711003517614,-0.16882080204632816,-0.2119177132844925,0.08241976797580719,0.32139819860458374,0.8034470081329346,0.5910850167274475,-0.005235000047832727,-0.07116100192070007
2021-01-14 15:05:03.723,-0.11238432660394784,-0.5037749543481943,-0.16173570739979645,-0.2119177132844925,0.08241976797580719,0.32139819860458374,0.8034470081329346,0.5910850167274475,-0.005235000047832727,-0.07116100192070007
2021-01-14 15:05:03.733,-0.1236227580479213,-0.5169679194080586,-0.15123021845914877,-0.1508311778306961,0.1777147501707077,0.4191366136074066,0.8047289848327637,0.5895940065383911,-0.006719000171869993,-0.06887900084257126
2021-01-14 15:05:03.743,-0.13828158378601074,-0.531138108701122,-0.14634393915838123,-0.12273138016462326,0.2381904125213623,0.4790014326572418,0.8058009743690491,0.5884479880332947,-0.008287999778985977,-0.06590499728918076
2021-01-14 15:05:03.753,-0.13461688343359499,-0.5543479140923947,-0.15294040952410015,-0.10868147760629654,0.29194656014442444,0.5266489386558533,0.8067299723625183,0.5875170230865479,-0.01000600028783083,-0.06252799928188324
2021-01-14 15:05:03.763,-0.13901452628933653,-0.5800008773803711,-0.1497643334524972,-0.1007402315735817,0.33226367831230164,0.5669659972190857,0.8075469732284546,0.5867490172386169,-0.011834999546408653,-0.058747999370098114
2021-01-14 15:05:03.773,-0.1399917870151753,-0.6034549888299435,-0.15562786131489031,-0.10501629114151001,0.3658612370491028,0.5956767201423645,0.808256983757019,0.5861179828643799,-0.013762000016868114,-0.05473000183701515
2021-01-14 15:05:03.783,-0.1482984484458456,-0.6181137902396066,-0.17590590885707308,-0.12212051451206207,0.415952205657959,0.6066722273826599,0.808883011341095,0.5855810046195984,-0.015745000913739204,-0.050533998757600784
2021-01-14 15:05:03.793,-0.13168511342029182,-0.6344828313710738,-0.19032041637264951,-0.12700743973255157,0.47276267409324646,0.590178906917572,0.8094720244407654,0.5850769877433777,-0.01759600080549717,-0.04614099860191345
2021-01-14 15:05:03.803,-0.14292354486426528,-0.6733287110620615,-0.16906512026884116,0.014102434739470482,0.5246862173080444,0.47839057445526123,0.8103860020637512,0.5843459963798523,-0.02055400051176548,-0.037296999245882034
2021-01-14 15:05:03.813,-0.17541727241204708,-0.7361173629760742,-0.14048041129598812,0.014102434739470482,0.5246862173080444,0.47839057445526123,0.8103860020637512,0.5843459963798523,-0.02055400051176548,-0.037296999245882034
2021-01-14 15:05:03.823,-0.20546786639155173,-0.8050138123181401,-0.12826471912617585,0.2077467143535614,0.6853437423706055,0.2969636023044586,0.8099439740180969,0.5853670239448547,-0.022210000082850456,-0.029013000428676605
2021-01-14 15:05:03.833,-0.24187061251426228,-0.8362859609175701,-0.1407247173542879,0.28105053305625916,0.7977429628372192,0.21144245564937592,0.8091269731521606,0.5866879820823669,-0.022134000435471535,-0.024883000180125237
2021-01-14 15:05:03.843,-0.27558591901039586,-0.8521663899324378,-0.13437256521108198,0.3732911944389343,0.9113638997077942,0.1460798680782318,0.808007001876831,0.5884130001068115,-0.02151400037109852,-0.02076599933207035
2021-01-14 15:05:03.853,-0.3141874926430838,-0.8695126552971041,-0.0747600076149921,0.4759165644645691,1.0213196277618408,0.09415632486343384,0.8065450191497803,0.5905929803848267,-0.020344000309705734,-0.016429999843239784
2021-01-14 15:05:03.863,-0.3566980848507005,-0.9327899193277164,-0.03444823987629948,0.5278400778770447,1.139216661453247,0.05872614309191704,0.804656982421875,0.5933229923248291,-0.018786000087857246,-0.011908000335097313
2021-01-14 15:05:03.873,-0.34448239268088826,-1.0422424394257215,-0.0820894204840368,0.5278400778770447,1.139216661453247,0.05872614309191704,0.804656982421875,0.5933229923248291,-0.018786000087857246,-0.011908000335097313
2021-01-14 15:05:03.883,-0.19642826245755565,-1.1367919493694694,-0.19520669567341706,0.399558424949646,1.29926335811615,0.028182879090309143,0.8024610280990601,0.5964229702949524,-0.016874000430107117,-0.007127999793738127
2021-01-14 15:05:03.893,-0.01636902136462075,-1.1260420935494557,-0.21206434892148388,0.25539422035217285,1.3695127964019775,0.00863519124686718,0.8005589842796326,0.5990800261497498,-0.014266000129282475,-0.0019359999569132924
2021-01-14 15:05:03.903,0.10603217446074194,-1.165376585357043,-0.17126394777881854,0.22973786294460297,1.3340826034545898,0.01779817044734955,0.7991089820861816,0.6010730266571045,-0.011188000440597534,0.0031320000998675823
2021-01-14 15:05:03.914,0.19716120496088144,-1.175882086461904,-0.13070786485866623,0.2285161316394806,1.1777011156082153,0.09721065312623978,0.7977650165557861,0.6028640270233154,-0.007968000136315823,0.007745000068098307
2021-01-14 15:05:03.924,0.3493686598174426,-1.1768594080088088,-0.09503804907506826,0.20530325174331665,0.9437397718429565,0.19494909048080444,0.7964019775390625,0.6046289801597595,-0.005187000147998333,0.011789999902248383
2021-01-14 15:05:03.934,0.5504388711890396,-1.2262107888046576,-0.04226628006721029,0.17659258842468262,0.7452085614204407,0.2835245728492737,0.7951800227165222,0.6061779856681824,-0.0030539999715983868,0.015057000331580639
2021-01-14 15:05:03.944,0.5484843740657884,-1.2538182005590321,0.010505491221437648,0.1167277991771698,0.42206084728240967,0.4649515450000763,0.7926909923553467,0.6093080043792725,-2.99000006634742E-4,0.01959799975156784
2021-01-14 15:05:03.954,0.4116686996148557,-1.2731190117038025,0.01588039404275466,0.04708915576338768,0.2681227922439575,0.502825140953064,0.79134202003479,0.6110119819641113,6.459999713115394E-4,0.02097100019454956
2021-01-14 15:05:03.964,0.1925192438826269,-1.2496648515973772,0.05399334187410315,0.003106860676780343,0.05370910465717316,0.44296038150787354,0.7901129722595215,0.6125710010528564,0.001142999972216785,0.021817000582814217
2021-01-14 15:05:03.974,-0.0415333375638845,-1.199824858684929,0.1155604026755508,0.03303925693035126,-0.12832874059677124,0.3079591691493988,0.7889189720153809,0.6141110062599182,9.14999982342124E-4,0.021726999431848526
2021-01-14 15:05:03.984,-0.17126394777881854,-1.1165138166777941,0.1568494280990289,0.10634308308362961,-0.2676060199737549,0.1717362105846405,0.7875040173530579,0.6159570217132568,1.8699999782256782E-4,0.02082500047981739
2021-01-14 15:05:03.994,-0.09308353978760388,-1.2086201687248386,-0.3100341680098553,0.16620787978172302,-0.39527684450149536,0.04650883376598358,0.7857270240783691,0.6182720065116882,-9.889999637380242E-4,0.019269000738859177
2021-01-14 15:05:04.004,0.1590482556090063,-1.2130177750879403,-1.0334472266995176,-0.05614706873893738,-0.5846450924873352,0.25542473793029785,0.7840579748153687,0.6204500198364258,-0.0025510000996291637,0.01695300079882145
2021-01-14 15:05:04.014,0.4055608292015231,-1.4612406127306878,-0.8511891656992386,0.31770244240760803,-1.3323441743850708,0.4252453148365021,0.78398597240448,0.6205679774284363,-0.00558699993416667,0.015103000216186047
2021-01-14 15:05:04.024,0.6537835938589913,-1.4900696034334142,-0.664533401022152,0.6414610743522644,-1.7135241031646729,0.6445459127426147,0.7830550074577332,0.6217389702796936,-0.011618000455200672,0.011339999735355377
2021-01-14 15:05:04.034,0.6418122564043317,-1.360094693242287,-0.4815424218469736,0.6390175819396973,-1.7733887434005737,0.762442946434021,0.7813050150871277,0.6238189935684204,-0.019102999940514565,0.006750000175088644
2021-01-14 15:05:04.044,0.3398404316026337,-1.160246012162189,-0.697760095401686,0.3482457399368286,-1.3702178001403809,0.8888920545578003,0.7795839905738831,0.6257240176200867,-0.026684999465942383,0.002211000071838498
2021-01-14 15:05:04.054,0.0911290305001395,-0.8836828932470204,-0.6000346067000408,0.27188757061958313,-1.1203738451004028,1.0544365644454956,0.7790390253067017,0.6261079907417297,-0.032937999814748764,-6.339999963529408E-4
2021-01-14 15:05:04.064,-0.05716941794570611,-0.8160079255396006,-0.5081726093681491,0.21629883348941803,-1.064785122871399,1.093531847000122,0.7789660096168518,0.6258609890937805,-0.03878900036215782,-0.0020000000949949026
2021-01-14 15:05:04.074,-0.20766669390152911,-0.8680468189473054,-0.5521491109108438,-0.018884288147091866,-0.9181774854660034,1.0629886388778687,0.7791979908943176,0.6251770257949829,-0.044665999710559845,-0.002836999949067831
2021-01-14 15:05:04.084,-0.36109573987065524,-0.9520907304724868,-0.5734043705220124,-0.3230951726436615,-0.7361396551132202,1.0287801027297974,0.780305027961731,0.6233739852905273,-0.05017299950122833,-0.003100000089034438
2021-01-14 15:05:04.094,-0.43267965316772455,-1.1233546782513053,-0.545796910110785,-0.5167394280433655,-0.593197226524353,0.9182135462760925,0.7824559807777405,0.6202419996261597,-0.0552619993686676,-0.002580000087618828
2021-01-14 15:05:04.104,-0.5084169154264488,-1.3200272346029476,-0.5712055673404616,-0.6462429165840149,-0.4753001928329468,0.7471712827682495,0.7851719856262207,0.6163740158081055,-0.059859998524188995,-0.0016700000269338489
2021-01-14 15:05:04.114,-0.532115381591174,-1.4162868382979412,-0.5902620237700793,-0.6822839379310608,-0.40505069494247437,0.5950657725334167,0.7881810069084167,0.6121240258216858,-0.06381700187921524,-6.309999735094607E-4
2021-01-14 15:05:04.124,-0.4976671082632882,-1.3676684243338448,-0.5448196858775859,-0.6169213652610779,-0.3561815023422241,0.4502907693386078,0.7911589741706848,0.6078810095787048,-0.06742800027132034,2.3400000645779073E-4
2021-01-14 15:05:04.134,-0.42437300390126753,-1.2481990152475784,-0.4744573028720155,-0.5057439208030701,-0.2511126697063446,0.2719181180000305,0.7937620282173157,0.6041139960289001,-0.07060399651527405,9.079999872483313E-4
2021-01-14 15:05:04.144,-0.32249416623796734,-1.1206671656394491,-0.43170242893452543,-0.36524486541748047,-0.05319231376051903,-0.0017495180945843458,0.7959190011024475,0.6009920239448547,-0.0729300007224083,0.001357999979518354
2021-01-14 15:05:04.154,-0.21059846391483228,-1.042486794140874,-0.39407807953503665,-0.3114887475967407,0.015224593691527843,-0.16485053300857544,0.7976279854774475,0.5986229777336121,-0.0737370029091835,0.001357999979518354
2021-01-14 15:05:04.164,-0.0925949155067911,-0.9555111126023895,-0.34203925911261107,-0.25406742095947266,0.07081332802772522,-0.29618656635284424,0.799107015132904,0.5966560244560242,-0.07366900146007538,0.001003999961540103
2021-01-14 15:05:04.174,0.008795294834642994,-0.8836828932470204,-0.30685806760982587,-0.20275473594665527,0.14472803473472595,-0.3884272277355194,0.8003320097923279,0.5951099991798401,-0.07287900149822235,2.1100000594742596E-4
2021-01-14 15:05:04.184,0.08599844514107217,-0.7756961608419612,-0.266057690795587,-0.17282232642173767,0.20459282398223877,-0.44707027077674866,0.8013319969177246,0.5939459800720215,-0.07135800272226334,-8.149999775923789E-4
2021-01-14 15:05:04.194,0.1260659037804117,-0.6474314417157854,-0.22061532857466715,-0.16915713250637054,0.19909502565860748,-0.479446142911911,0.8021860122680664,0.5930410027503967,-0.06924799829721451,-0.0019529999699443579
2021-01-14 15:05:04.204,0.16344589846474783,-0.5479957619491889,-0.19618394423504262,-0.16915713250637054,0.19909502565860748,-0.479446142911911,0.8021860122680664,0.5930410027503967,-0.06924799829721451,-0.0019529999699443579
2021-01-14 15:05:04.214,0.19520669567341706,-0.5372459547860281,-0.1741957056279085,-0.2070307731628418,0.16427570581436157,-0.5154871940612793,0.8029760122299194,0.5922279953956604,-0.06695599853992462,-0.0033279999624937773
2021-01-14 15:05:04.224,0.20400198138490014,-0.5308938026428223,-0.15953687988981907,-0.21619375050067902,0.08852842450141907,-0.5625237822532654,0.8038529753684998,0.5912920236587524,-0.06455100327730179,-0.005026999861001968
2021-01-14 15:05:04.234,0.20815533034655512,-0.5272290657977668,-0.15294040952410015,-0.2168046236038208,-0.09778548032045364,-0.6553753018379211,0.8055739998817444,0.589398980140686,-0.05962900072336197,-0.010091999545693398
2021-01-14 15:05:04.244,0.20571217244985152,-0.531138108701122,-0.1553835430923773,-0.21741549670696259,-0.15887199342250824,-0.6999685168266296,0.806361973285675,0.5885019898414612,-0.057078998535871506,-0.013643999584019184
2021-01-14 15:05:04.254,0.2008259053132972,-0.5335812665978256,-0.16344589846474783,-0.2168046236038208,-0.1955239176750183,-0.7402855753898621,0.8070889711380005,0.5876579880714417,-0.05428700149059296,-0.01779099926352501
2021-01-14 15:05:04.264,0.17834904242535024,-0.5401777247993313,-0.18005923349030162,-0.21008510887622833,-0.22545631229877472,-0.7677745223045349,0.8077390193939209,0.5868719816207886,-0.0513250008225441,-0.02242800034582615
2021-01-14 15:05:04.274,0.15147452451744858,-0.546774183000837,-0.18592277351690797,-0.21008510887622833,-0.22545631229877472,-0.7677745223045349,0.8077390193939209,0.5868719816207886,-0.0513250008225441,-0.02242800034582615
2021-01-14 15:05:04.284,0.11898079696966676,-0.5670522183788066,-0.18274668528109178,-0.18381790816783905,-0.2755472660064697,-0.7842679023742676,0.808305025100708,0.586135983467102,-0.04833399876952171,-0.027386000379920006
2021-01-14 15:05:04.294,0.1172706059047154,-0.567540879152259,-0.20009296280997138,-0.13433781266212463,-0.34090983867645264,-0.7842679023742676,0.8087360262870789,0.5855090022087097,-0.0454460009932518,-0.03254599869251251
2021-01-14 15:05:04.304,0.10554353801571592,-0.5907506845435317,-0.18812158886267213,-0.09340985119342804,-0.40627244114875793,-0.7537246346473694,0.8089529871940613,0.5850840210914612,-0.04286700114607811,-0.03783800080418587
2021-01-14 15:05:04.314,0.1419462963026397,-0.6371702953260772,-0.17248551456295713,-0.059812258929014206,-0.46247202157974243,-0.7005793452262878,0.8090239763259888,0.5847870111465454,-0.040619999170303345,-0.04304400086402893
2021-01-14 15:05:04.324,0.1832353217261178,-0.6711299078805105,-0.18543413707188197,-0.056757934391498566,-0.5418845415115356,-0.6077278256416321,0.8089519739151001,0.5846120119094849,-0.03882899880409241,-0.04811900109052658
2021-01-14 15:05:04.334,0.26141572971733246,-0.7126632028696488,-0.20815533034655512,-0.08791206032037735,-0.6493967771530151,-0.48311132192611694,0.8087940216064453,0.5844820141792297,-0.0376489982008934,-0.05304500088095665
2021-01-14 15:05:04.344,0.3232271087412931,-0.728054971111064,-0.22892197784112422,-0.12884002923965454,-0.7611851096153259,-0.3328384757041931,0.8086659908294678,0.5842329859733582,-0.03721100091934204,-0.05783500149846077
2021-01-14 15:05:04.354,0.3845498513202278,-0.7505318583274374,-0.24406944002423966,-0.13678127527236938,-0.8729734420776367,-0.17828957736492157,0.8086169958114624,0.5838000178337097,-0.03750700131058693,-0.0625159963965416
2021-01-14 15:05:04.364,0.3935894674184371,-0.7690997026404556,-0.23674003931940818,-0.09768590331077576,-0.9853726625442505,-0.04451008513569832,0.8085860013961792,0.5832890272140503,-0.03839600086212158,-0.06699000298976898
2021-01-14 15:05:04.374,0.3100341680098553,-0.8406836645943777,-0.15440629453075175,-0.004223522264510393,-1.1063239574432373,0.06300219893455505,0.8084390163421631,0.582876980304718,-0.03980400040745735,-0.07138200104236603
2021-01-14 15:05:04.384,0.1851898310135822,-0.9481816389122787,-0.03469255201670588,0.12894509732723236,-1.2120037078857422,0.14424726366996765,0.8079950213432312,0.5827959775924683,-0.04177999868988991,-0.07579600065946579
2021-01-14 15:05:04.394,0.07109530118046974,-1.1443656804610272,0.01734627600835294,0.22057488560676575,-1.3072986602783203,0.19983601570129395,0.8070399761199951,0.5833539962768555,-0.0443819984793663,-0.08008600026369095
2021-01-14 15:05:04.404,-0.09357217015052327,-1.3432370399942202,-0.09919138587251,0.20408152043819427,-1.334176778793335,0.20472292602062225,0.8055629730224609,0.584551990032196,-0.047738999128341675,-0.08417899906635284
2021-01-14 15:05:04.414,-0.25604082613575213,-1.364248042203942,-0.12728747056455028,0.045256562530994415,-1.3109638690948486,0.16074062883853912,0.8038480281829834,0.5860289931297302,-0.0515890009701252,-0.087957002222538
2021-01-14 15:05:04.424,-0.3461925837458396,-1.3432370399942202,-0.1241113823287341,-0.09096638858318329,-1.2504881620407104,0.08988027274608612,0.8024849891662598,0.5870090126991272,-0.05565100163221359,-0.09132099896669388
2021-01-14 15:05:04.434,-0.41240161778975504,-1.3950315786867724,-0.15978119811233207,-0.03721024841070175,-1.142975926399231,-0.0017495180945843458,0.8014709949493408,0.5875179767608643,-0.05978899821639061,-0.09429000318050385
2021-01-14 15:05:04.444,-0.3926121945283851,-1.440473867922413,-0.1260659037804117,0.028152335435152054,-0.8784712553024292,-0.08177286386489868,0.8002679944038391,0.5883039832115173,-0.06385400146245956,-0.09690000116825104
2021-01-14 15:05:04.454,-0.3259145483678701,-1.3691342606836434,-0.06352157617101864,0.11489520221948624,-0.6396229267120361,-0.2131088823080063,0.7989500164985657,0.5894349813461304,-0.06716100126504898,-0.0986580029129982
2021-01-14 15:05:04.464,-0.23331963286107898,-1.2469774362992265,-0.007085099208111665,0.1368863582611084,-0.5015674233436584,-0.2680867612361908,0.7973880171775818,0.591044008731842,-0.06956800073385239,-0.09998799860477448
2021-01-14 15:05:04.474,-0.11507177839473802,-1.2210801182960977,0.06376588831142503,0.2627245783805847,0.04088093712925911,-0.14469198882579803,0.7940189838409424,0.595071017742157,-0.07252699881792068,-0.10081499814987183
2021-01-14 15:05:04.484,0.0,-1.1988476344517298,0.08453256013442058,0.3134264051914215,0.24674251675605774,-0.025573262944817543,0.7920960187911987,0.5978310108184814,-0.0726969987154007,-0.09947700053453445
2021-01-14 15:05:04.494,0.08770863620602354,-1.1648879732404436,0.14756550594251983,0.37756726145744324,0.3133268356323242,0.07521950453519821,0.7900329828262329,0.6009770035743713,-0.07230299711227417,-0.09718599915504456
2021-01-14 15:05:04.504,-0.19716120496088144,-1.4179970293628925,-0.2401604214493109,0.3042634129524231,0.41228702664375305,0.126532182097435,0.7876790165901184,0.6045190095901489,-0.07188399881124496,-0.09459999948740005
2021-01-14 15:05:04.514,-0.39236788847008525,-1.1680640979688994,-1.2880221191717653,-0.2528456747531891,0.5155232548713684,0.0025265386793762445,0.7857900261878967,0.6074849963188171,-0.07135699689388275,-0.09166499972343445
2021-01-14 15:05:04.524,-0.46663926572215797,-1.328822544642857,-0.6603801007173499,0.5565508008003235,0.5729445815086365,-0.1917286068201065,0.7866039872169495,0.6070029735565186,-0.0696759968996048,-0.08914200216531754
2021-01-14 15:05:04.534,-0.5643647544238032,-1.434121715779207,-0.5756032223604163,0.7251495718955994,1.1715924739837646,-0.4660071134567261,0.7851629853248596,0.6094110012054443,-0.0679439976811409,-0.0867139995098114
2021-01-14 15:05:04.544,-0.5702282944504096,-1.1839444296700612,-0.5575239901639977,0.645126223564148,1.4428166151046753,-0.6352167725563049,0.7834950089454651,0.6125289797782898,-0.06348200142383575,-0.08313900232315063
2021-01-14 15:05:04.554,-0.2406490578943369,-0.8433710798925282,-0.5015761511666433,0.512568473815918,1.2876569032669067,-0.834969699382782,0.7822650074958801,0.6151949763298035,-0.057686999440193176,-0.07915899902582169
2021-01-14 15:05:04.564,-0.06278863366769284,-0.7126632028696488,-0.5189224165313098,0.4594231843948364,1.108062505722046,-0.9131604433059692,0.7814800143241882,0.6170420050621033,-0.051917001605033875,-0.0765020027756691
2021-01-14 15:05:04.574,0.16491178347139943,-0.7119302846947494,-0.5782906376585668,0.33236321806907654,0.9339659214019775,-0.9363733530044556,0.7809780240058899,0.6183220148086548,-0.04645400121808052,-0.07478100061416626
2021-01-14 15:05:04.584,0.27876199508199884,-0.7996389330649862,-0.5015761511666433,0.33236321806907654,0.9339659214019775,-0.9363733530044556,0.7809780240058899,0.6183220148086548,-0.04645400121808052,-0.07478100061416626
2021-01-14 15:05:04.594,0.33593141302770496,-0.9635734558105468,-0.5450639919358856,0.20041634142398834,0.8081277012825012,-0.8991105556488037,0.7810320258140564,0.61872798204422,-0.041168998926877975,-0.07395199686288834
2021-01-14 15:05:04.604,0.36353887343893243,-1.0827986074953662,-0.5626545633588518,-0.12028791755437851,0.7116109728813171,-0.742118239402771,0.7815510034561157,0.6184089779853821,-0.036049000918865204,-0.07380399852991104
2021-01-14 15:05:04.614,0.3828396602552764,-1.2672554716771962,-0.5553251869824467,-0.2913301885128021,0.5888270735740662,-0.5857366919517517,0.7830929756164551,0.6166999936103821,-0.03132599964737892,-0.07391799986362457
2021-01-14 15:05:04.624,0.3747772927186927,-1.3495891921374261,-0.542620834039182,-0.33531248569488525,0.4611562192440033,-0.4208030700683594,0.7851399779319763,0.6142539978027344,-0.02714099921286106,-0.07422400265932083
2021-01-14 15:05:04.634,0.2975741454533168,-1.2574829374040875,-0.4893604589968311,-0.3035474717617035,0.3664720952510834,-0.2674759030342102,0.7872200012207031,0.6116719841957092,-0.02371799945831299,-0.07468900084495544
2021-01-14 15:05:04.644,0.1832353217261178,-1.102099321326431,-0.41655496675141,-0.2168046236038208,0.26079243421554565,-0.12758776545524597,0.789097011089325,0.6093040108680725,-0.020934000611305237,-0.07506799697875977
2021-01-14 15:05:04.654,0.12728747056455028,-0.9911808675649214,-0.36866944663378654,-0.12334224581718445,0.11113043874502182,-0.007247305475175381,0.79060298204422,0.6073859930038452,-0.018918000161647797,-0.07529599964618683
2021-01-14 15:05:04.664,0.05057294757998719,-0.9156879113644969,-0.3344655280210534,-0.06775350868701935,0.021333245560526848,0.10148671269416809,0.7917270064353943,0.6059269905090332,-0.01791200041770935,-0.07548899948596954
2021-01-14 15:05:04.674,-0.039578828276420126,-0.85289935676419,-0.329090624439473,-0.04637322202324867,0.006672481074929237,0.20594467222690582,0.7926120162010193,0.604773998260498,-0.017673999071121216,-0.07550200074911118
2021-01-14 15:05:04.684,-0.11678196945968938,-0.7651906597371003,-0.3242043573029187,-0.054925337433815,-0.0293685682117939,0.2884114682674408,0.7933880090713501,0.6038129925727844,-0.01786400005221367,-0.07500100135803223
2021-01-14 15:05:04.694,-0.17224119634044413,-0.6618459857240014,-0.2831596501019536,-0.056757934391498566,-0.09045509248971939,0.3293394446372986,0.794160008430481,0.6028860211372375,-0.018539000302553177,-0.07411400228738785
2021-01-14 15:05:04.704,-0.20180316603913598,-0.6183580962979063,-0.23674003931940818,-0.05553620308637619,-0.151541605591774,0.33605897426605225,0.7949410080909729,0.6019530296325684,-0.019657999277114868,-0.07302600145339966
2021-01-14 15:05:04.714,-0.18421257028774338,-0.5900177177117795,-0.2169506160580382,-0.08302514255046844,-0.17414362728595734,0.3177329897880554,0.7957299947738647,0.6009960174560547,-0.021158000454306602,-0.07189100235700607
2021-01-14 15:05:04.724,-0.18176943671946622,-0.5575239901639977,-0.19569531995422984,-0.1105140745639801,-0.11794403195381165,0.2890223264694214,0.7965909838676453,0.599918007850647,-0.02292799949645996,-0.07081499695777893
